SamplingTime, AccelerationX, AccelerationY, AccelerationZ, GyroX, GyroY, GyroZ, MagneticFieldX, MagneticFieldY, MagneticFieldZ
1733469405,-6.565649,-2.819621,-7.152977,0.110007,0.288073,-0.119061,-68.988647,-24.82428,-645.204285
1733469405,-6.16073,-2.581698,-6.900239,0.173031,0.220961,-0.135983,-69.019257,-24.877136,-645.293152
1733469405,-5.824644,-2.361132,-6.710798,0.190713,0.169102,-0.141276,-69.222916,-24.94487,-645.45459
1733469405,-5.643732,-2.163311,-6.740575,0.19085,0.250869,-0.154658,-69.309784,-24.90567,-645.400269
1733469405,-5.21906,-2.073828,-6.649745,0.141486,0.215768,-0.071343,-68.939285,-25.244705,-645.636597
1733469405,-4.626047,-2.457349,-6.462848,0.07102,0.063181,0.031716,-68.898666,-25.298019,-645.315247
1733469405,-4.709694,-2.473809,-6.948272,0.057771,0.084673,0.123984,-69.279449,-25.036224,-645.809204
1733469405,-4.799776,-2.09747,-7.199963,0.074407,0.222825,0.197089,-68.869751,-25.252167,-645.470947
1733469405,-5.175965,-2.264167,-6.944681,0.066038,0.292018,0.240449,-68.762238,-25.321854,-646.138733
1733469405,-5.272331,-2.400486,-6.70975,0.035678,0.326782,0.26902,-68.775635,-25.259872,-645.546326
1733469405,-5.37214,-2.534711,-6.710498,0.007469,0.396991,0.297054,-68.795303,-24.877747,-645.640381
1733469405,-5.475689,-2.505981,-6.929568,-0.012401,0.503287,0.319591,-68.546738,-24.713898,-646.466797
1733469405,-5.747131,-2.386121,-7.049577,-0.010752,0.576367,0.313876,-68.496277,-24.683762,-645.772522
1733469405,-6.034436,-2.295291,-7.258621,0.049768,0.638418,0.279154,-68.002838,-24.688034,-647.107483
1733469405,-6.105663,-2.236933,-7.587973,0.161501,0.75437,0.26564,-67.58049,-24.568253,-646.555542
1733469405,-5.841254,-2.223914,-7.844003,0.275318,0.909013,0.282183,-67.363541,-24.393646,-646.611938
1733469405,-5.450101,-2.292747,-7.462427,0.328869,0.907285,0.273309,-67.360336,-24.605804,-647.630005
1733469405,-4.999692,-2.219126,-6.600365,0.34864,0.798364,0.297525,-66.868942,-24.636536,-647.286194
1733469405,-4.644602,-2.008137,-5.956774,0.289712,0.711404,0.31901,-66.664719,-24.625702,-648.392029
1733469405,-4.572327,-1.822586,-5.676951,0.159434,0.632216,0.275734,-66.355652,-24.54747,-648.322937
1733469405,-4.536713,-1.620426,-5.580435,0.035471,0.588672,0.224412,-66.387573,-24.503113,-648.455688
1733469405,-4.216488,-1.645565,-6.174796,-0.043216,0.672149,0.167983,-66.147171,-24.290634,-649.15094
1733469405,-3.578134,-1.662923,-6.825719,-0.077612,0.795454,0.215547,-65.733673,-24.334869,-648.765991
1733469405,-2.757222,-1.38744,-7.013514,-0.077659,0.929995,0.366841,-65.265839,-24.200882,-650.211914
1733469405,-1.962348,-1.222539,-7.02354,-0.070586,1.051355,0.570869,-64.714081,-24.081131,-649.763123
1733469405,-1.508946,-0.952743,-6.143521,-0.089582,1.023001,0.811947,-64.392456,-23.601868,-649.286011
1733469405,-1.206229,-0.592266,-5.35942,-0.17205,1.067136,1.062276,-63.931763,-23.10997,-650.635864
1733469405,-1.392827,-0.254534,-4.759673,-0.307534,0.939821,1.277795,-63.511871,-22.787354,-649.988953
1733469405,-2.280776,-0.218321,-3.342904,-0.450655,0.608871,1.360746,-62.990402,-22.068741,-650.89209
1733469405,-2.998887,0.008529,-2.97704,-0.635953,0.329185,1.362649,-62.587799,-21.395035,-650.819702
1733469405,-3.445705,0.345364,-3.328389,-0.850885,0.181374,1.366091,-62.07962,-20.505249,-649.887634
1733469405,-3.887735,0.444723,-4.024803,-1.025479,0.203872,1.373083,-61.678909,-19.789154,-650.585388
1733469405,-3.943849,0.773776,-5.033659,-1.142984,0.430433,1.443757,-61.204788,-18.88121,-650.000488
1733469405,-3.664924,1.403301,-6.000169,-1.219842,0.796492,1.612764,-60.300415,-17.941055,-650.488281
1733469405,-3.460519,1.554735,-6.483049,-1.263834,1.174869,1.816604,-59.574493,-16.875381,-650.000916
1733469405,-3.667318,1.565209,-6.231957,-1.25619,1.366898,2.010163,-58.763321,-16.195724,-649.598328
1733469405,-4.194641,1.520617,-5.109825,-1.23442,1.275003,2.120264,-57.907364,-15.127914,-650.331665
1733469405,-5.351789,0.884508,-3.197307,-1.254485,0.810442,2.085624,-57.195435,-14.316696,-649.654175
1733469405,-6.698827,0.376638,-1.247978,-1.322893,0.151042,1.927844,-56.412827,-13.278091,-650.123413
1733469405,-7.650522,0.388908,-0.144999,-1.428633,-0.473324,1.755524,-56.069931,-12.354446,-649.553833
1733469405,-8.684667,0.327706,0.379631,-1.59614,-0.90136,1.577149,-55.852524,-11.26506,-648.04126
1733469405,-10.13271,0.054618,0.373047,-1.884465,-0.991867,1.369089,-55.657562,-10.207428,-648.192078
1733469405,-11.491121,-0.047435,0.197821,-2.325252,-0.766918,1.139214,-55.491547,-8.965866,-646.083252
1733469406,-12.323106,-0.142305,-0.24361,-2.839367,-0.380411,0.946998,-54.890945,-7.822479,-646.572693
1733469406,-12.741792,-0.003891,-0.839018,-3.28148,0.026513,0.829521,-54.575363,-6.695999,-645.228394
1733469406,-13.207913,0.367211,-1.439214,-3.585595,0.33815,0.720679,-53.999023,-5.481812,-643.174744
1733469406,-13.781474,0.631022,-1.68058,-3.812155,0.451262,0.58512,-53.654633,-4.403152,-642.737671
1733469406,-14.56348,0.902015,-1.625663,-3.987269,0.350794,0.406364,-53.426819,-3.219803,-640.389038
1733469406,-15.554679,0.82151,-1.648557,-4.174545,0.080195,0.128077,-53.303497,-1.96167,-639.76709
1733469406,-16.92117,1.196502,-1.805228,-4.41089,-0.287662,-0.205727,-53.253281,-0.825424,-638.055725
1733469406,-18.386272,2.053626,-2.929006,-4.632837,-0.58287,-0.570212,-53.496353,-0.026138,-635.530762
1733469406,-19.645322,2.684948,-4.734833,-4.766973,-0.820364,-0.938828,-53.904312,0.590302,-634.144897
1733469406,-20.714782,3.805284,-6.772748,-4.813735,-1.074101,-1.292485,-54.502258,1.113831,-630.89679
1733469406,-21.873576,5.159804,-9.253739,-4.772523,-1.254909,-1.650091,-55.464645,1.486038,-629.025574
1733469406,-22.899791,6.105663,-12.162993,-4.668687,-1.251929,-2.034687,-56.349991,1.737534,-627.11731
1733469406,-23.779959,7.265654,-14.801852,-4.554524,-1.158206,-2.473959,-57.506424,1.475891,-624.434326
1733469406,-24.307881,8.402301,-17.38774,-4.357314,-0.98384,-2.954309,-58.634293,0.889145,-623.471985
1733469406,-24.167969,9.241469,-20.33575,-4.002472,-0.655089,-3.436434,-60.377991,0.192032,-621.151855
1733469406,-23.323415,10.134057,-23.024738,-3.515282,-0.288185,-3.869445,-61.861694,-0.916168,-619.471497
1733469406,-22.014086,11.42947,-24.813656,-2.934251,-0.060921,-4.229903,-63.930054,-2.047333,-619.165649
1733469406,-20.413263,12.630162,-25.978285,-2.268709,0.042428,-4.511533,-65.333298,-3.518417,-617.832764
1733469406,-18.630779,13.550882,-26.727371,-1.565929,0.124733,-4.700204,-67.09462,-5.146744,-617.964478
1733469406,-16.93344,14.474595,-26.896312,-0.91037,0.239533,-4.79558,-69.10405,-6.806503,-617.696716
1733469406,-15.391874,15.32723,-26.699538,-0.339955,0.45155,-4.826213,-70.560257,-8.750092,-617.898132
1733469406,-13.870807,15.721076,-26.241947,0.160692,0.773978,-4.814077,-72.356705,-10.73996,-619.163818
1733469406,-12.441319,15.904083,-25.416695,0.592936,1.156147,-4.761158,-73.921463,-12.887466,-619.274048
1733469406,-10.965593,15.994165,-24.245931,0.981918,1.512342,-4.693543,-75.48941,-14.975372,-620.804321
1733469406,-9.588628,15.903933,-23.014563,1.357248,1.838941,-4.646778,-76.692352,-17.187225,-621.26178
1733469406,-8.339004,15.779734,-21.615601,1.717591,2.131702,-4.607903,-77.400528,-19.553925,-623.07959
1733469406,-7.042694,15.846922,-20.011635,2.057884,2.373097,-4.540046,-78.58783,-21.836243,-625.903198
1733469406,-5.629516,15.909021,-18.270003,2.376626,2.529442,-4.427228,-79.341599,-24.228851,-626.462463
1733469406,-4.301632,15.917251,-16.33893,2.698904,2.54996,-4.275836,-79.596848,-26.785904,-629.353027
1733469406,-2.989161,15.950022,-14.320019,3.044656,2.409588,-4.058094,-80.009735,-29.154099,-630.320923
1733469406,-1.575085,15.724518,-12.488156,3.355066,2.203676,-3.777824,-80.296326,-31.52298,-631.097046
1733469406,-0.269797,15.146618,-10.928034,3.573917,2.035641,-3.461149,-80.399002,-33.585922,-633.428711
1733469406,0.766145,14.292187,-9.767146,3.704978,2.001618,-3.115467,-80.000992,-35.868042,-634.260071
1733469406,1.704372,13.401544,-8.953117,3.775341,2.142978,-2.699092,-79.886398,-37.749313,-635.382568
1733469406,2.563891,12.725182,-7.909694,3.778631,2.37986,-2.224757,-79.682251,-39.539246,-636.550903
1733469406,3.115305,11.966968,-6.608445,3.727667,2.634786,-1.737161,-79.088318,-41.023285,-637.662476
1733469406,3.523217,11.225663,-5.394885,3.64203,2.886188,-1.25053,-78.592682,-42.59938,-638.880432
1733469406,3.717746,10.456376,-4.212897,3.522542,3.118416,-0.779835,-77.814301,-43.724213,-641.053101
1733469406,3.599383,9.548375,-3.032256,3.352631,3.335145,-0.348332,-76.99295,-44.647217,-642.487305
1733469406,3.343652,8.821735,-1.871966,3.149386,3.497419,0.028065,-76.222717,-45.323807,-643.091797
1733469406,3.287239,8.074744,-0.886304,2.954286,3.555584,0.369708,-75.455338,-46.084885,-643.645386
1733469406,3.361459,7.412448,-0.01227,2.804243,3.49562,0.69348,-74.429138,-46.621109,-645.738892
1733469406,3.395726,6.766014,0.662446,2.704892,3.335653,0.980037,-73.933487,-46.994965,-646.949463
1733469406,3.329736,6.030246,1.278803,2.633855,3.088125,1.221164,-73.038345,-47.370392,-647.876099
1733469406,3.272874,5.295675,1.904887,2.576457,2.776314,1.43391,-72.338135,-47.619934,-647.872314
1733469406,3.202544,4.651186,2.357989,2.512983,2.479428,1.636555,-71.678528,-47.697739,-649.197021
1733469406,3.081038,4.159327,2.681207,2.437694,2.213003,1.85114,-71.007584,-47.908569,-649.597534
1733469406,3.007716,3.825785,2.892196,2.363888,2.00107,2.100474,-70.468765,-47.782349,-649.985779
1733469406,2.818574,3.439121,3.106477,2.315934,1.843837,2.374044,-70.08783,-47.485748,-650.302551
1733469406,2.455703,3.107823,3.419369,2.266704,1.753111,2.660176,-69.36937,-47.397171,-650.245483
1733469406,1.743278,2.932747,4.155586,2.177243,1.670705,2.920338,-69.019577,-46.701004,-651.168762
1733469406,0.835427,2.705598,4.966472,2.020846,1.611296,3.115411,-68.972794,-46.333099,-651.654358
1733469406,0.051924,2.30008,5.774814,1.793987,1.465041,3.216097,-68.394409,-45.601822,-651.999878
1733469406,-0.472406,1.977012,6.791303,1.527485,1.188418,3.292287,-68.127838,-44.841995,-651.829468
1733469406,-0.628029,1.925088,7.395539,1.257596,0.889639,3.429815,-68.121643,-43.971741,-651.72937
1733469406,-0.96217,1.827075,7.541137,1.007471,0.661631,3.625237,-67.942734,-42.747131,-651.819092
1733469406,-1.510592,1.428441,7.669376,0.742308,0.526452,3.828874,-67.407333,-41.762024,-652.441772
1733469406,-2.256086,1.189469,7.831434,0.425172,0.504861,4.036946,-67.407333,-41.762024,-652.441772
1733469406,-3.214365,1.108815,7.872434,0.042222,0.607747,4.218751,-66.983704,-38.561264,-652.952698
1733469406,-4.295347,0.730531,7.873033,-0.395978,0.779782,4.310486,-66.560547,-36.775146,-653.468628
1733469406,-5.371391,0.303764,8.581417,-0.908937,0.834271,4.279662,-65.995972,-34.690384,-653.716492
1733469406,-6.089652,0.14455,9.775376,-1.4753,0.624567,4.187018,-65.527267,-32.636292,-652.575562
1733469406,-6.441899,0.116418,10.337115,-2.01371,0.25298,4.098165,-64.874512,-30.14949,-652.646851
1733469406,-6.727407,0.191536,10.192416,-2.479364,-0.178711,4.063535,-64.874512,-30.14949,-652.646851
1733469406,-7.249493,0.782904,9.682002,-2.835113,-0.578957,4.135058,-64.179276,-27.735352,-652.585754
1733469406,-8.147019,1.530643,8.871864,-3.126624,-0.823131,4.247193,-63.805237,-25.138123,-651.522827
1733469406,-9.731083,2.335544,8.186224,-3.471195,-0.862079,4.331141,-62.902863,-22.365555,-650.723633
1733469406,-11.486332,2.933944,7.647379,-3.917647,-0.767935,4.406811,-62.278687,-19.543793,-649.344177
1733469406,-13.568689,3.48895,7.079804,-4.407588,-0.555793,4.416821,-60.983582,-16.665985,-648.384705
1733469406,-16.057761,4.186262,6.958897,-4.948812,-0.362437,4.302711,-59.867523,-13.541397,-646.639343
1733469406,-18.29215,4.894496,7.178864,-5.57035,-0.375769,4.118858,-58.58403,-10.540634,-644.576294
1733469406,-20.564846,6.125415,6.728604,-6.159432,-0.526714,3.88474,-56.991287,-7.579102,-643.22583
1733469406,-22.959945,7.860164,4.812046,-6.599767,-0.641022,3.618119,-55.802185,-4.897934,-640.558472
1733469406,-25.088241,9.294889,2.303821,-6.882766,-0.724725,3.259879,-54.985977,-2.303818,-638.061951
1733469406,-26.957514,10.229376,-0.225354,-7.047534,-0.759429,2.791058,-53.673447,0.167862,-634.926147
1733469406,-28.909237,10.897508,-3.183839,-7.128936,-0.57011,2.205582,-52.739273,1.988449,-632.107117
1733469406,-30.693516,11.505785,-6.166117,-7.146821,-0.20243,1.511793,-51.932602,3.410004,-628.614746
1733469406,-31.586104,12.09401,-8.28723,-7.139522,0.117944,0.791097,-51.621429,4.68399,-626.081238
1733469406,-32.092029,13.005154,-10.35582,-7.024616,0.341266,0.051972,-51.579712,5.483002,-622.59198
1733469406,-32.443976,13.701717,-12.823643,-6.708752,0.488694,-0.717043,-51.70929,5.70752,-619.742798
1733469406,-32.288353,14.094366,-15.296105,-6.219818,0.552569,-1.474116,-52.525604,5.564362,-617.210022
1733469406,-31.660175,14.714763,-17.275063,-5.607782,0.506904,-2.169558,-53.311432,5.03508,-614.749878
1733469406,-30.833277,15.733795,-19.011009,-4.90299,0.461126,-2.786877,-54.43309,4.45285,-612.936401
1733469406,-29.594727,16.747291,-20.3359,-4.191531,0.42059,-3.275489,-56.108719,3.41391,-611.544922
1733469406,-27.909059,17.362002,-20.982634,-3.569309,0.429621,-3.649861,-57.848618,2.480316,-609.894348
1733469406,-26.780941,17.668909,-21.57445,-3.062342,0.647263,-3.996042,-59.620758,1.076935,-609.29071
1733469406,-25.686941,18.021754,-22.038028,-2.633332,0.94683,-4.341853,-61.435211,-0.575531,-609.117004
1733469406,-24.116793,18.406922,-22.255451,-2.201652,1.20157,-4.651098,-63.383041,-2.18985,-608.703003
1733469406,-22.042218,18.904916,-22.703167,-1.69789,1.418298,-4.861476,-65.339081,-4.088043,-608.356323
1733469406,-19.83222,19.431341,-23.026384,-1.151724,1.606419,-4.966112,-67.717438,-5.948364,-608.941223
1733469406,-17.815554,19.857957,-22.994811,-0.602052,1.78389,-4.994634,-69.406967,-7.611267,-609.579712
1733469406,-16.17373,20.187908,-22.705561,-0.077859,1.97798,-5.012092,-71.606552,-9.719086,-610.404297
1733469406,-14.811878,20.34847,-22.213553,0.433432,2.173248,-5.06115,-73.301254,-11.857498,-611.861633
1733469406,-13.423541,20.246566,-21.588367,0.898556,2.389613,-5.06742,-75.214066,-13.924805,-613.100891
1733469406,-11.631181,20.849756,-20.65388,1.381908,2.48411,-4.989448,-76.656219,-16.058548,-614.953247
1733469406,-10.239402,20.62081,-19.626618,1.915421,2.531148,-4.936256,-77.71962,-18.79599,-616.429443
1733469406,-8.899846,20.377799,-18.536358,2.440152,2.500019,-4.859626,-79.148102,-20.975372,-618.421143
1733469406,-7.678055,20.152295,-17.083078,2.91818,2.404314,-4.793828,-80.153778,-23.487656,-619.783264
1733469406,-6.776189,19.541474,-15.699379,3.334172,2.345552,-4.753113,-81.022354,-25.967392,-620.818115
1733469406,-5.781997,18.869003,-14.419229,3.664793,2.370835,-4.704622,-81.706711,-28.470901,-623.218811
1733469407,-4.619163,18.312351,-13.065158,3.90686,2.457208,-4.612455,-81.922318,-31.283936,-624.915283
1733469407,-3.393182,17.873015,-11.654824,4.102163,2.565777,-4.441422,-82.082169,-33.928452,-626.457153
1733469407,-1.956961,17.384448,-10.319458,4.265614,2.695485,-4.180039,-82.128677,-36.701279,-628.372131
1733469407,-0.411503,16.827946,-8.991574,4.388466,2.852512,-3.810986,-82.096802,-39.128342,-629.653625
1733469407,1.008109,16.196026,-7.610718,4.477542,2.960475,-3.379272,-81.785553,-41.58255,-631.1745
1733469407,2.157475,15.2572,-6.161777,4.535231,3.008142,-2.926634,-81.537491,-43.902802,-632.603455
1733469407,2.973598,14.110527,-4.931607,4.549425,3.051267,-2.49331,-81.004608,-45.86882,-633.909546
1733469407,3.391686,12.964901,-3.678392,4.511756,3.051987,-2.096032,-80.366913,-47.64296,-635.099487
1733469407,3.659687,11.919383,-2.53935,4.426158,3.048996,-1.729304,-79.890976,-49.430893,-635.535461
1733469407,3.920206,11.000908,-1.638981,4.296602,3.08871,-1.390153,-79.096634,-51.021957,-636.983521
1733469407,4.121169,10.201095,-0.823605,4.13444,3.151883,-1.055992,-78.415909,-52.256454,-638.042236
1733469407,4.53806,9.380332,0.130933,3.943604,3.20356,-0.720331,-77.636993,-53.398575,-638.848328
1733469407,5.073613,8.63005,1.324293,3.710286,3.173316,-0.358155,-76.995926,-54.408508,-639.095825
1733469407,5.559636,8.044966,2.429366,3.43914,3.09249,0.033494,-76.57106,-55.112045,-640.159668
1733469407,5.768081,7.429507,3.178752,3.14397,3.04442,0.423362,-75.855255,-55.665253,-640.922241
1733469407,5.78903,6.647501,3.574992,2.846419,3.00448,0.787228,-75.014786,-56.213989,-641.838562
1733469407,5.664382,5.91682,3.917512,2.588253,2.935775,1.137969,-74.391022,-56.375595,-642.851868
1733469407,5.543325,5.581782,4.07134,2.278138,2.680556,1.850925,-74.062805,-56.090988,-643.010376
1733469407,5.422418,5.152621,4.283676,2.209244,2.493226,2.220636,-73.559067,-56.010635,-643.09314
1733469407,5.280711,4.737227,4.52549,2.197391,2.272653,2.627922,-73.016312,-55.645081,-644.263184
1733469407,4.647295,4.5213,5.157559,2.203264,2.055864,3.041723,-72.749954,-55.307556,-644.680542
1733469407,3.899257,4.316297,5.921759,2.147829,1.85418,3.420417,-72.823517,-54.631607,-645.133728
1733469407,3.032556,4.113687,6.853702,1.965771,1.714491,3.747693,-72.564362,-53.716095,-645.515076
1733469407,2.143559,3.921702,7.731625,1.644476,1.633447,4.030499,-72.48912,-52.600677,-645.671997
1733469407,1.227777,3.748572,8.622717,1.196326,1.55611,4.255777,-72.320129,-51.323196,-646.169495
1733469407,0.471957,3.604321,9.204957,0.710695,1.465599,4.492223,-72.138733,-49.889236,-646.591675
1733469407,-0.130185,3.771017,9.150339,0.308877,1.396025,4.797152,-71.563904,-48.291534,-647.056213
1733469407,-0.855179,3.904793,9.308058,-0.025313,1.253579,5.120439,-71.457245,-46.244171,-647.714722
1733469407,-1.64347,3.983652,9.677064,-0.362152,1.088467,5.473024,-70.987289,-44.104172,-647.578247
1733469407,-2.720112,4.184466,9.752631,-0.719162,1.013254,5.809407,-70.851761,-41.569473,-648.488708
1733469407,-4.44708,4.120421,9.941773,-1.150496,1.059528,6.055442,-70.253677,-38.805389,-648.864929
1733469407,-6.430377,3.91856,10.641329,-1.697279,1.101217,6.187245,-69.737488,-35.84494,-649.207092
1733469407,-8.374768,3.633351,11.564144,-2.353764,1.079474,6.214083,-68.536926,-32.723282,-649.485779
1733469407,-10.270975,3.522768,12.412589,-3.062915,0.933033,6.175461,-67.45401,-29.390289,-649.565491
1733469407,-11.96218,3.777452,12.71351,-3.739841,0.695569,6.131533,-65.899124,-25.999496,-649.247681
1733469407,-13.920637,4.115782,12.101193,-4.315409,0.466513,6.033803,-64.52887,-22.427399,-648.783081
1733469407,-16.144251,4.356998,11.069741,-4.786041,0.288096,5.855294,-62.915726,-19.016113,-648.405945
1733469407,-18.629582,4.640262,10.130765,-5.240237,0.175454,5.546444,-61.269852,-15.261017,-647.041748
1733469407,-21.260511,5.04982,9.460389,-5.712177,0.050947,5.105857,-59.859253,-11.778351,-644.759644
1733469407,-23.574956,5.741894,8.713697,-6.194163,-0.033365,4.604893,-58.020828,-8.581863,-643.440002
1733469407,-25.508273,6.914305,8.133851,-6.693982,-0.135575,4.12534,-56.236877,-5.527649,-640.989502
1733469407,-27.750294,8.645462,7.003339,-7.196732,-0.179277,3.586591,-54.596085,-2.544907,-638.441284
1733469407,-30.195222,10.238953,4.968717,-7.664498,-0.138134,2.913536,-53.312027,-0.107437,-635.430115
1733469407,-31.795148,11.609633,2.546233,-8.030308,-0.136971,2.170871,-52.108566,1.839096,-632.177856
1733469407,-32.720656,13.252954,-0.254085,-8.213755,-0.163443,1.426743,-51.483475,3.661621,-628.588989
1733469407,-33.204135,15.391574,-3.265541,-8.215119,-0.214076,0.76096,-50.600922,5.116211,-624.854614
1733469407,-33.803284,17.50745,-6.145018,-8.079202,-0.23267,0.128272,-50.486328,5.806244,-620.801514
1733469407,-34.506731,18.909105,-9.406818,-7.784166,-0.074936,-0.539039,-50.655396,6.206741,-617.64856
1733469407,-34.714877,19.74947,-12.826187,-7.291525,0.291767,-1.196573,-51.300217,5.862015,-613.997192
1733469407,-33.865384,20.011336,-15.628301,-6.655023,0.779992,-1.805358,-52.236649,5.480499,-611.599487
1733469407,-31.94269,19.465608,-17.526903,-5.918055,1.257231,-2.280001,-53.466629,4.798798,-609.493469
1733469407,-29.60969,18.910003,-18.328661,-5.15512,1.658351,-2.637194,-54.845749,3.703186,-607.525635
1733469407,-27.657369,18.775479,-18.068441,-4.497083,1.901016,-2.921651,-56.379059,2.633835,-606.203369
1733469407,-26.253469,19.092112,-17.255011,-4.006738,1.960813,-3.225286,-58.096039,1.218323,-605.659912
1733469407,-25.251495,19.541324,-16.880917,-3.643466,1.95386,-3.58349,-60.110428,-0.075623,-604.905273
1733469407,-24.085369,20.020913,-17.279402,-3.293995,1.938934,-3.936626,-61.933517,-1.563354,-604.379761
1733469407,-22.725463,20.513969,-18.186057,-2.872086,1.941422,-4.263402,-63.800293,-3.154602,-603.677246
1733469407,-20.995652,20.578313,-19.586964,-2.333186,2.028722,-4.501647,-65.735962,-5.008713,-603.716064
1733469407,-19.097798,20.615573,-20.934151,-1.674399,2.209789,-4.638894,-67.806656,-6.794678,-603.684692
1733469407,-17.207576,20.554371,-21.656302,-0.937258,2.432042,-4.677946,-69.480316,-8.514633,-604.952393
1733469407,-15.449783,20.740221,-21.613506,-0.19017,2.681591,-4.661052,-71.584625,-10.217224,-605.904846
1733469407,-13.951612,21.111621,-20.674081,0.451643,2.833056,-4.637761,-73.421661,-12.264114,-607.13147
1733469407,-12.497882,21.553052,-19.128624,0.966059,2.848916,-4.626889,-75.266357,-13.995499,-608.84729
1733469407,-11.215638,21.668273,-17.981652,1.420632,2.811396,-4.645921,-76.905869,-16.223618,-610.46936
1733469407,-9.950601,21.424214,-17.262793,1.880163,2.730111,-4.657726,-78.193054,-18.293716,-612.387329
1733469407,-8.573786,21.169082,-16.490363,2.351063,2.598751,-4.61646,-79.404938,-20.508026,-613.923828
1733469407,-7.270891,20.810102,-15.724069,2.842026,2.458476,-4.521412,-80.353729,-22.738342,-615.716797
1733469407,-6.131251,20.142718,-14.862755,3.300999,2.382924,-4.388824,-81.255371,-25.005341,-618.092957
1733469407,-5.182848,19.484312,-13.870807,3.670547,2.41198,-4.22567,-81.689117,-27.434662,-619.151794
1733469407,-4.364181,18.827403,-12.777854,3.936071,2.552681,-4.03721,-82.453903,-29.662964,-620.855042
1733469407,-3.461866,18.027291,-11.654375,4.129437,2.747101,-3.816269,-82.8013,-31.829163,-623.258057
1733469407,-2.541445,17.153258,-10.457424,4.285478,2.969995,-3.584214,-82.880005,-34.136154,-624.856201
1733469407,-1.675642,16.236727,-9.154829,4.415004,3.120945,-3.339459,-82.78421,-36.459473,-626.718811
1733469407,-0.661249,15.352369,-7.773973,4.532604,3.21629,-3.071161,-82.724564,-38.703415,-628.473389
1733469407,0.482432,14.482975,-6.459706,4.634254,3.249922,-2.781222,-82.722809,-40.691757,-629.860229
1733469407,1.479018,13.608493,-5.146486,4.690411,3.249349,-2.47311,-82.299728,-42.875259,-631.420166
1733469407,2.492214,12.747927,-3.845537,4.695874,3.202456,-2.130222,-81.59697,-44.861771,-632.600281
1733469407,3.453636,12.059145,-2.689886,4.637577,3.161364,-1.742297,-80.978165,-46.574249,-633.790771
1733469407,4.107253,11.377695,-1.893664,4.552559,3.156823,-1.328635,-80.439026,-48.077713,-634.535889
1733469407,4.59971,10.602124,-1.025616,4.428834,3.19228,-0.903298,-79.970337,-49.347244,-636.00885
1733469407,5.057003,9.789142,-0.151882,4.273571,3.195233,-0.478518,-79.3526,-50.412018,-637.329468
1733469407,5.331139,9.0016,0.997634,4.112463,3.119487,-0.080254,-78.67627,-51.481689,-638.214478
1733469407,5.487959,8.102876,2.058415,3.952889,2.969175,0.303122,-77.97847,-52.349319,-639.089539
1733469407,5.430648,7.315932,3.185635,3.779276,2.813076,0.656626,-77.367493,-53.005569,-639.973999
1733469407,5.140201,6.434866,4.420444,3.516859,2.618626,0.95074,-77.037521,-53.281876,-640.68335
1733469407,4.999243,5.490802,5.50831,3.168892,2.413686,1.228156,-76.334503,-53.702942,-641.244812
1733469407,4.717475,4.735432,5.887043,2.795201,2.330598,1.46119,-75.946259,-53.800034,-641.674683
1733469407,4.195389,4.103961,5.944952,2.417112,2.326143,1.638424,-75.822479,-53.703125,-641.745667
1733469407,3.917812,3.735104,6.263381,2.056352,2.226202,1.803803,-75.296722,-53.554749,-641.960144
1733469407,3.865738,3.713107,6.541408,1.796749,1.986052,1.993679,-75.152817,-52.926971,-643.096252
1733469407,3.866336,3.631405,6.42095,1.681936,1.681229,2.231592,-75.054001,-52.370071,-643.770264
1733469407,3.760992,3.43553,6.033089,1.690531,1.430367,2.541852,-74.688583,-51.732498,-643.942139
1733469407,3.37777,3.194164,5.557092,1.747464,1.324724,2.875777,-74.387115,-50.986786,-644.458618
1733469407,2.809147,2.912397,5.610512,1.773246,1.320471,3.211068,-74.349747,-49.942505,-644.313049
1733469407,2.206855,2.807351,6.329371,1.730842,1.350692,3.543334,-74.19104,-48.868774,-645.084167
1733469407,1.512986,2.760365,7.541137,1.566193,1.365308,3.834731,-74.019073,-47.702408,-645.34729
1733469407,0.797269,2.72101,9.283517,1.242441,1.247925,4.092872,-73.729385,-46.448761,-645.877625
1733469407,0.244209,2.817078,10.976218,0.78683,1.028727,4.348546,-73.712387,-44.874039,-645.944092
1733469407,-0.515651,2.921525,12.063335,0.226299,0.819612,4.569617,-73.360657,-42.783127,-645.830322
1733469407,-1.379958,3.218106,12.532,-0.368598,0.627399,4.815679,-73.051559,-40.389297,-646.565308
1733469408,-2.326565,3.450643,12.398972,-0.912352,0.499854,5.076746,-72.832825,-37.801331,-646.211792
1733469408,-3.367894,3.48102,12.043134,-1.392159,0.385378,5.349741,-72.048569,-35.22168,-646.419312
1733469408,-4.79798,3.489399,11.805509,-1.806794,0.292077,5.586435,-71.384048,-32.312332,-646.285156
1733469408,-6.621165,3.562572,11.778425,-2.216074,0.217136,5.753509,-70.428268,-29.279785,-646.772949
1733469408,-8.529493,3.664625,12.152219,-2.676735,0.166539,5.86366,-69.301178,-26.018127,-646.179077
1733469408,-10.694899,3.487604,12.969241,-3.243263,0.074559,5.913564,-67.847015,-22.690613,-645.573975
1733469408,-13.227366,3.437325,13.612533,-3.884476,-0.037114,5.880583,-66.29361,-19.190323,-644.529968
1733469408,-16.034268,3.534739,13.744962,-4.538987,-0.102362,5.746166,-64.794479,-15.581314,-643.514038
1733469408,-19.10139,3.829077,13.89026,-5.256673,-0.22033,5.50251,-63.112793,-12.111801,-641.615479
1733469408,-22.681918,4.637718,13.999496,-6.02093,-0.45983,5.079544,-61.366577,-8.813675,-639.727417
1733469408,-26.515334,6.199935,13.173646,-6.727547,-0.757641,4.520273,-61.366577,-8.813675,-639.727417
1733469408,-29.660268,7.794772,11.07827,-7.296126,-1.067303,3.896567,-59.818405,-5.781342,-636.725037
1733469408,-32.746693,9.348011,8.184279,-7.711419,-1.375506,3.172528,-58.423401,-3.028488,-633.86145
1733469408,-35.552249,10.747272,4.132991,-7.915497,-1.419624,2.410362,-57.112625,-0.841858,-630.285889
1733469408,-37.863701,11.966968,-0.617854,-7.959897,-1.101041,1.548308,-56.468964,1.020416,-626.627441
1733469408,-39.215228,13.521553,-4.353556,-7.987223,-0.678807,0.665616,-55.853363,2.318985,-623.006104
1733469408,-38.692543,15.003115,-7.421127,-7.899982,-0.369626,-0.069673,-55.822098,2.977661,-619.515564
1733469408,-37.652263,16.010625,-10.833912,-7.55537,-0.056581,-0.675092,-55.908127,3.257629,-616.488464
1733469408,-36.619165,16.503531,-14.271387,-6.950346,0.286244,-1.170799,-56.474472,2.742508,-613.18158
1733469408,-35.342008,16.565032,-16.737864,-6.18684,0.640466,-1.585197,-57.088272,2.237671,-610.654175
1733469408,-34.062008,16.385916,-17.902044,-5.435011,0.881947,-1.997784,-58.097626,1.443527,-608.747864
1733469408,-32.993745,16.012121,-18.213291,-4.778233,1.092156,-2.457641,-59.310043,0.338364,-607.289551
1733469408,-31.887025,16.501287,-18.145355,-4.298216,1.247879,-2.937255,-60.583145,-0.792542,-605.970337
1733469408,-30.243256,17.060632,-17.850719,-3.934927,1.326987,-3.395495,-62.044693,-2.328354,-604.697266
1733469408,-28.476635,17.442807,-18.249952,-3.523587,1.366361,-3.834394,-63.894577,-3.838638,-604.230713
1733469408,-26.594942,17.685668,-19.026272,-3.045788,1.404895,-4.2252,-65.588058,-5.815094,-603.742615
1733469408,-24.558673,18.063803,-19.922451,-2.495967,1.477491,-4.517957,-67.210327,-7.810837,-604.056763
1733469408,-22.319346,18.780716,-20.913651,-1.877484,1.645727,-4.678636,-69.115448,-9.635757,-603.825684
1733469408,-20.147955,19.379267,-21.612907,-1.222768,1.873525,-4.743983,-70.957108,-11.557022,-603.990051
1733469408,-18.170195,19.42356,-21.703139,-0.541008,2.081343,-4.78532,-72.956757,-13.843964,-604.897217
1733469408,-16.314689,19.362208,-21.287146,0.175611,2.217782,-4.824209,-74.690781,-15.972153,-605.912903
1733469408,-14.514249,19.495834,-20.436456,0.863555,2.276372,-4.837078,-76.232803,-17.989182,-607.345032
1733469408,-12.888287,19.703083,-19.260604,1.493329,2.303209,-4.820391,-77.646378,-20.340469,-608.625122
1733469408,-11.533767,19.826534,-18.036868,2.050596,2.34454,-4.781558,-79.008423,-22.381989,-609.919006
1733469408,-10.036793,19.860651,-16.736517,2.51558,2.412439,-4.704259,-80.160873,-24.579285,-611.289246
1733469408,-8.535778,19.676597,-15.421951,2.883286,2.509218,-4.591911,-80.935196,-26.765686,-613.285156
1733469408,-7.065588,19.29936,-14.285752,3.195434,2.617318,-4.436601,-81.792267,-29.183243,-615.106812
1733469408,-5.637297,18.674324,-13.250709,3.494419,2.688659,-4.260485,-82.466537,-31.262482,-617.125366
1733469408,-4.307019,17.875858,-12.043134,3.796047,2.649113,-4.073049,-82.908539,-33.664719,-618.619934
1733469408,-3.004274,17.110162,-10.876858,4.092524,2.562067,-3.847481,-83.222855,-35.926666,-620.155029
1733469408,-1.859696,16.27294,-9.826253,4.370815,2.499852,-3.603179,-83.741486,-38.064026,-621.537231
1733469408,-0.877325,15.3603,-8.771906,4.584251,2.519969,-3.346343,-83.848907,-40.333191,-622.424072
1733469408,0.006285,14.44362,-7.641394,4.71791,2.569663,-3.088851,-83.470505,-42.465836,-623.709229
1733469408,0.796072,13.573477,-6.322488,4.807744,2.620156,-2.837977,-83.327637,-44.437973,-625.148438
1733469408,1.678036,12.728175,-5.340416,4.84657,2.739907,-2.55989,-83.221039,-46.195282,-626.61969
1733469408,2.600402,12.012608,-4.325574,4.817619,2.878492,-2.23058,-82.635361,-48.011475,-627.588989
1733469408,3.242497,11.512369,-3.272724,4.735135,3.03509,-1.879386,-82.213669,-49.59938,-628.669128
1733469408,3.58397,10.969035,-2.393603,4.630556,3.176322,-1.521981,-81.528809,-51.068192,-629.782837
1733469408,3.932027,10.506355,-1.364695,4.537838,3.256435,-1.134203,-81.156799,-52.397308,-629.865601
1733469408,4.320038,10.135553,0.030376,4.450785,3.211574,-0.734421,-80.699615,-53.322021,-631.147766
1733469408,4.576816,9.519047,1.55249,4.325314,3.040758,-0.338856,-80.012619,-54.483078,-632.314636
1733469408,4.709844,8.865429,2.782661,4.162432,2.817536,0.038804,-79.492828,-55.163788,-632.981567
1733469408,4.767753,8.092701,3.452289,3.993899,2.672694,0.403812,-79.497162,-55.600403,-633.625183
1733469408,4.655375,7.381623,3.97632,3.819794,2.682789,0.760605,-78.927139,-55.796219,-634.180298
1733469408,4.562151,6.806715,4.914249,3.563455,2.716165,1.100803,-78.659515,-56.169647,-634.629944
1733469408,4.660314,6.316802,6.22253,3.232127,2.673144,1.434992,-78.379654,-56.16777,-635.503662
1733469408,5.087978,5.897667,7.373842,2.911637,2.503406,1.817997,-78.213165,-55.926224,-636.169495
1733469408,5.423016,5.67755,8.203732,2.67892,2.219474,2.27195,-77.883499,-55.410156,-636.221069
1733469408,5.352986,5.305102,8.552088,2.544077,1.9543,2.767834,-77.733032,-54.799469,-635.921692
1733469408,4.866664,4.817433,9.044246,2.384856,1.78061,3.262611,-77.76149,-53.690811,-637.711487
1733469408,3.951779,4.228908,10.007314,2.073504,1.72461,3.705194,-77.610336,-52.483627,-637.861023
1733469408,2.917035,3.72448,10.899005,1.587919,1.798955,4.099942,-77.560745,-50.882202,-638.619141
1733469408,1.70527,3.521272,11.799673,0.983035,1.924413,4.440579,-77.570068,-49.073013,-639.143677
1733469408,0.307655,3.061436,12.73027,0.335586,1.997275,4.721891,-77.278809,-46.85025,-639.741882
1733469408,-1.165078,2.494459,13.310265,-0.301748,2.004446,4.914237,-77.113724,-44.59845,-640.88678
1733469408,-2.519748,2.11827,13.647698,-0.896025,1.907055,5.039848,-76.328644,-42.201126,-642.036316
1733469408,-3.531747,2.049586,14.074464,-1.439641,1.613338,5.133008,-76.163498,-39.385376,-642.52002
1733469408,-4.402189,2.320879,14.192678,-1.886174,1.208507,5.251445,-75.12027,-36.643158,-642.831726
1733469408,-5.407454,2.433556,14.217069,-2.25895,0.711677,5.366593,-74.340164,-33.880112,-642.311951
1733469408,-6.709301,2.560748,14.503774,-2.619123,0.207777,5.481774,-73.5103,-30.537506,-642.819763
1733469408,-8.504055,2.782212,14.62947,-2.992651,-0.16247,5.582476,-72.641586,-27.09819,-641.973389
1733469408,-10.643723,2.902072,14.613459,-3.398358,-0.366652,5.706893,-71.643417,-23.791641,-641.450439
1733469408,-12.783092,2.935142,14.369699,-3.883318,-0.312865,5.830658,-70.284485,-20.414459,-640.860718
1733469408,-15.429582,2.825008,14.581287,-4.555445,-0.043524,5.856235,-68.376892,-16.700623,-639.414185
1733469408,-18.269405,3.090615,15.387085,-5.477745,0.203803,5.749269,-66.730835,-13.155197,-638.178711
1733469408,-21.518187,4.21574,15.76073,-6.468287,0.295373,5.464551,-64.864319,-9.765991,-636.089539
1733469408,-25.180567,5.976975,14.665982,-7.284389,0.207725,4.99236,-62.963608,-6.606003,-633.737915
1733469408,-28.644378,7.317279,12.249634,-7.814679,-0.08159,4.335869,-61.322052,-3.690765,-631.086914
1733469408,-32.180315,8.015338,9.561544,-8.097883,-0.531739,3.495831,-59.976944,-1.54277,-627.023926
1733469408,-35.479974,8.46455,6.256199,-8.199075,-0.850595,2.492679,-58.915359,0.135696,-623.98938
1733469408,-38.218641,9.538799,2.222268,-8.200239,-0.743622,1.42217,-58.188171,1.310608,-620.281189
1733469408,-39.345113,11.399991,-1.4865,-8.187824,-0.393046,0.444541,-57.97966,1.848816,-616.740723
1733469408,-38.864327,13.533973,-4.207361,-8.056759,-0.149949,-0.382764,-58.122711,1.692551,-613.446228
1733469408,-38.122574,15.592538,-6.560711,-7.750385,-0.047693,-1.091971,-58.553589,1.177841,-610.418396
1733469408,-37.188386,17.094151,-9.009381,-7.350317,-0.008944,-1.693792,-59.475006,0.181091,-607.527222
1733469408,-36.258388,18.331205,-11.596016,-6.915195,0.123716,-2.243872,-60.3172,-0.999207,-605.204956
1733469408,-35.229031,19.474586,-14.118757,-6.485746,0.356352,-2.764817,-61.699402,-2.588226,-602.841125
1733469408,-34.067694,20.918888,-16.103251,-6.035454,0.549216,-3.229602,-62.733948,-4.427795,-601.376709
1733469408,-32.093375,21.593005,-18.649933,-5.401662,0.841389,-3.564435,-64.295212,-6.412857,-599.316895
1733469408,-29.569438,21.206641,-21.500081,-4.536736,1.236009,-3.745175,-65.704208,-8.318115,-599.642639
1733469408,-27.027394,20.371813,-23.560291,-3.536642,1.654807,-3.784481,-67.325409,-10.170715,-599.116333
1733469408,-24.650251,19.272725,-24.278103,-2.554996,2.088832,-3.765598,-69.237427,-11.948746,-599.754883
1733469408,-22.77634,18.223765,-23.42038,-1.764811,2.48434,-3.790488,-71.182266,-13.797623,-600.176636
1733469408,-21.563078,17.872117,-21.209634,-1.238599,2.753233,-3.900158,-72.795959,-15.493591,-601.314819
1733469408,-20.466833,17.950527,-19.198056,-0.883467,2.930101,-4.064475,-74.405838,-17.50177,-602.724976
1733469408,-19.315222,18.164509,-18.482189,-0.506708,3.109514,-4.240282,-76.119202,-19.379974,-603.730957
1733469408,-18.01532,18.152687,-18.602049,-0.010237,3.298053,-4.422474,-77.615982,-21.599365,-605.750122
1733469408,-16.461633,17.937359,-18.517055,0.626579,3.401812,-4.613311,-79.277771,-23.801147,-607.518677
1733469408,-14.800206,18.034025,-17.71784,1.361163,3.361609,-4.778955,-80.136383,-26.070206,-608.924927
1733469408,-13.112294,18.394801,-16.253188,2.08333,3.174552,-4.911375,-81.417023,-28.563782,-611.778076
1733469409,-11.452813,18.640207,-14.346056,2.705251,2.915192,-4.993194,-82.027649,-31.082367,-613.302979
1733469409,-9.797522,18.736723,-12.602928,3.192673,2.707208,-5.013263,-82.753555,-33.483566,-614.881348
1733469409,-8.111555,18.563742,-11.170447,3.518931,2.608157,-4.94039,-83.261551,-35.905334,-616.129578
1733469409,-6.44549,18.274941,-9.917382,3.728448,2.593631,-4.765007,-83.213394,-38.802032,-617.807861
1733469409,-4.81474,17.842788,-8.97661,3.88487,2.68567,-4.497411,-83.138336,-40.879562,-619.157532
1733469409,-3.280356,17.258603,-8.39856,4.010372,2.925667,-4.107399,-83.276672,-43.359909,-620.630127
1733469409,-1.851167,16.60738,-7.869292,4.099277,3.297472,-3.630672,-83.015961,-45.612991,-622.893616
1733469409,-0.699855,15.805322,-7.0403,4.147806,3.688721,-3.113776,-82.921951,-47.273834,-624.195068
1733469409,0.201562,14.80694,-5.896919,4.201613,3.996377,-2.610687,-82.786743,-49.063751,-625.536865
1733469409,0.777218,13.675231,-4.750844,4.26879,4.207556,-2.1638,-82.15303,-50.55307,-627.415039
1733469409,1.284938,12.655151,-3.566912,4.336645,4.28205,-1.752745,-81.700455,-52.101562,-628.682434
1733469409,1.881394,11.825561,-2.13907,4.395648,4.184617,-1.369984,-81.113312,-53.262894,-630.339844
1733469409,2.421585,11.141567,-0.488716,4.400609,3.967239,-1.030054,-80.662231,-54.424774,-631.551392
1733469409,2.803161,10.362554,0.964564,4.302294,3.735278,-0.718359,-80.028015,-55.549362,-632.466431
1733469409,3.061436,9.443928,2.346617,4.093507,3.478093,-0.447767,-79.138733,-56.560104,-633.170044
1733469409,3.544316,8.507646,3.483863,3.806675,3.197499,-0.17729,-78.650711,-57.02269,-634.367798
1733469409,4.092439,7.773973,3.792715,3.515973,3.041692,0.127283,-78.117203,-57.596481,-635.085266
1733469409,4.489876,7.030424,3.760094,3.27764,2.966164,0.454111,-77.587204,-57.771973,-635.767578
1733469409,4.900482,6.148609,3.830573,3.072943,2.956235,0.796931,-77.436584,-58.156448,-636.076355
1733469409,5.307945,5.599888,4.100669,2.902492,2.943484,1.187487,-76.940674,-58.025436,-637.246948
1733469409,5.709423,5.271583,4.619014,2.751795,2.887358,1.613436,-76.658279,-57.688858,-637.747498
1733469409,5.891532,4.831499,5.30181,2.591311,2.767012,2.076302,-76.442276,-57.240219,-638.631348
1733469409,5.918915,4.712986,5.957971,2.409642,2.622066,2.572613,-76.066864,-56.409546,-638.907349
1733469409,5.765088,4.794688,6.729802,2.195937,2.406418,3.095778,-75.978012,-55.476959,-639.346985
1733469409,5.35149,4.800674,7.435343,1.943097,2.125509,3.592719,-76.226166,-54.069061,-639.947144
1733469409,4.660912,4.780622,7.786842,1.686137,1.84638,4.069863,-76.170135,-52.596878,-640.788696
1733469409,3.805733,4.751892,7.768436,1.472141,1.634101,4.526267,-76.015625,-50.617401,-641.170166
1733469409,2.676269,4.689643,7.857471,1.245064,1.524567,4.939948,-75.638306,-48.735764,-641.277283
1733469409,1.213262,4.313304,8.199243,0.949483,1.505818,5.289011,-75.668808,-46.442215,-641.243042
1733469409,-0.374992,3.679888,8.511537,0.554862,1.584387,5.542369,-75.47435,-43.995422,-642.640869
1733469409,-1.759888,3.433584,8.949675,0.085171,1.692669,5.746206,-75.009949,-41.175278,-643.309143
1733469409,-2.879925,3.352481,9.493907,-0.405347,1.713429,5.920486,-74.245911,-38.391693,-643.800232
1733469409,-4.232799,3.310882,10.303148,-0.892404,1.614039,6.03614,-73.494843,-35.528168,-644.42395
1733469409,-5.941062,3.103634,11.488726,-1.413648,1.3393,6.074808,-72.424438,-32.362778,-644.555603
1733469409,-7.619696,2.783409,12.523171,-1.930955,0.988445,6.092574,-71.122269,-29.100937,-644.783569
1733469409,-9.415048,2.908656,12.831724,-2.421108,0.695751,6.10493,-70.005859,-25.532379,-644.112244
1733469409,-11.365724,3.088819,12.856414,-2.919363,0.470969,6.12091,-68.499207,-22.265656,-644.020325
1733469409,-13.278392,3.024924,12.510901,-3.411664,0.408959,6.153785,-66.945175,-18.763535,-643.30957
1733469409,-15.482704,2.645294,12.134712,-3.943571,0.513621,6.134437,-65.27977,-15.356964,-642.368042
1733469409,-18.553417,2.218228,12.349591,-4.606328,0.669421,5.897686,-63.347717,-11.86348,-641.929138
1733469409,-21.733814,2.268057,12.696152,-5.407028,0.761531,5.444356,-61.057816,-8.546341,-639.823181
1733469409,-24.019828,2.917634,12.710667,-6.218279,0.68952,4.886058,-59.337234,-5.431839,-637.69342
1733469409,-25.893141,4.1912,12.215067,-6.914787,0.412752,4.318316,-57.813766,-2.945724,-635.065247
1733469409,-28.042536,5.780052,10.810718,-7.453955,-0.01804,3.687542,-56.292038,-0.503479,-631.928711
1733469409,-30.673614,7.385962,8.32823,-7.816207,-0.403474,2.957044,-55.284332,1.597946,-628.466248
1733469409,-32.504879,8.393024,4.882675,-8.01187,-0.562528,2.23761,-54.456894,3.249298,-624.623474
1733469409,-33.925239,9.701305,1.45777,-8.1292,-0.414947,1.531317,-53.825623,4.092758,-621.138184
1733469409,-35.590706,11.929708,-1.204134,-8.250016,-0.208179,0.736885,-54.051346,4.312546,-617.408325
1733469409,-36.659567,14.269143,-3.650559,-8.240365,-0.053953,-0.082053,-54.314392,4.376877,-612.916565
1733469409,-36.86876,15.921591,-6.642862,-8.040319,0.120273,-0.89276,-55.11763,3.946869,-610.771179
1733469409,-36.677673,17.550845,-9.898827,-7.65171,0.332439,-1.683345,-56.291718,2.915222,-607.78009
1733469409,-35.84883,19.141942,-12.906543,-7.094276,0.624645,-2.404125,-57.936768,1.616318,-605.707703
1733469409,-34.047493,20.238636,-15.215301,-6.454081,0.834092,-2.987316,-59.73999,-0.009018,-603.821777
1733469409,-31.718533,20.640712,-16.908301,-5.741879,1.006894,-3.467956,-61.409607,-1.880005,-602.460083
1733469409,-29.466787,21.023335,-18.309807,-4.994882,1.110073,-3.86803,-63.029037,-3.632004,-601.470825
1733469409,-27.209354,21.843648,-19.056199,-4.265653,1.055114,-4.119782,-64.853699,-5.417862,-600.267395
1733469409,-24.801834,22.309021,-20.115633,-3.527425,1.059581,-4.215179,-66.766525,-7.317184,-600.270752
1733469409,-22.840684,22.252907,-21.663335,-2.803356,1.25671,-4.23778,-66.766525,-7.317184,-600.270752
1733469409,-21.235821,21.981914,-22.812253,-2.104389,1.634564,-4.231624,-68.529297,-9.261749,-600.456055
1733469409,-19.72493,21.601834,-23.303513,-1.42318,2.07619,-4.236017,-70.047913,-11.114426,-600.618469
1733469409,-18.141913,21.256022,-23.022045,-0.730452,2.410415,-4.270535,-72.402405,-12.766266,-602.117615
1733469409,-16.380828,20.902428,-22.349124,-0.009881,2.61957,-4.328316,-73.917236,-14.659393,-603.194946
1733469409,-14.564976,20.672285,-21.551556,0.686999,2.768877,-4.377457,-75.861984,-16.733704,-604.923096
1733469409,-12.724134,20.52983,-20.541951,1.334219,2.893719,-4.386479,-77.459412,-18.506271,-606.507202
1733469409,-10.960655,20.477308,-19.176807,1.925704,2.984876,-4.336797,-78.648285,-20.545883,-608.500977
1733469409,-9.261969,20.407726,-17.25546,2.462497,2.908575,-4.229951,-80.115372,-22.259857,-610.320007
1733469409,-7.623587,20.093188,-15.260043,2.945413,2.738897,-4.070685,-80.956818,-24.24968,-612.256836
1733469409,-5.33054,18.706646,-12.053758,3.606844,2.478629,-3.718092,-81.78093,-26.397217,-614.033691
1733469409,-4.397251,17.955764,-11.055226,3.796148,2.54026,-3.503316,-82.289108,-28.153992,-615.882263
1733469409,-3.438074,17.149218,-10.333225,3.951261,2.694529,-3.247895,-82.91011,-29.958298,-617.174805
1733469409,-3.438074,17.149218,-10.333225,3.951261,2.694529,-3.247895,-83.214294,-31.775497,-619.032593
1733469409,-1.966837,15.297153,-9.041403,4.283973,3.151445,-2.693022,-83.485657,-33.56778,-621.112061
1733469409,-1.288679,14.460379,-8.242488,4.489263,3.3569,-2.410408,-83.635147,-35.377975,-622.672119
1733469409,-0.680701,13.77489,-6.910863,4.708139,3.422801,-2.134262,-83.654358,-37.083511,-624.840088
1733469409,-0.174477,13.006201,-5.500529,4.900182,3.399321,-1.899644,-83.591171,-38.656219,-626.096802
1733469409,0.249596,12.126482,-3.953725,5.050351,3.283119,-1.68811,-83.185028,-40.265335,-627.999451
1733469409,0.757914,11.45416,-2.274492,5.102204,3.116573,-1.489125,-83.178574,-42.003647,-630.011719
1733469409,1.335815,10.725425,-0.927155,5.031456,2.964838,-1.276938,-82.669907,-43.578735,-631.77533
1733469409,1.980154,10.182989,0.20231,4.907264,2.813087,-1.016006,-81.953918,-44.932663,-632.613098
1733469409,2.603245,9.551219,1.10657,4.745615,2.715413,-0.709061,-81.03183,-46.235016,-633.560852
1733469409,3.199402,8.785224,1.82498,4.527227,2.687495,-0.357759,-80.888474,-47.403137,-634.351562
1733469409,3.629909,8.126669,2.57676,4.278541,2.710665,0.037818,-80.144409,-48.495026,-635.044678
1733469409,3.903297,7.488015,3.479822,3.989037,2.705436,0.436816,-79.675552,-49.427032,-636.442322
1733469409,3.862296,6.655731,4.353108,3.669644,2.679461,0.812961,-79.206207,-49.804321,-637.136719
1733469409,3.596839,5.901258,4.866514,3.345309,2.689194,1.14193,-79.029953,-50.165771,-637.804932
1733469409,3.408894,5.262755,5.372888,3.003102,2.686958,1.451612,-78.313248,-50.229736,-638.318054
1733469409,3.359663,4.811896,5.774814,2.694893,2.667428,1.766876,-77.739746,-50.324188,-639.444092
1733469409,3.271976,4.433313,6.266524,2.431638,2.587083,2.083518,-77.334488,-50.178635,-640.224365
1733469409,3.233369,3.878756,7.129633,2.183415,2.341886,2.397407,-76.95166,-49.62149,-640.983521
1733469409,3.258508,3.462913,7.86585,1.983285,1.974822,2.739823,-76.804901,-49.117279,-641.967285
1733469409,3.169175,3.181744,8.296807,1.830832,1.585003,3.099727,-76.430374,-48.276566,-642.086975
1733469409,2.739865,2.94412,8.501511,1.672523,1.274842,3.469217,-75.919357,-47.492218,-642.55835
1733469409,2.100014,2.569278,8.42744,1.472535,1.111839,3.833707,-75.611633,-46.288452,-643.333374
1733469409,1.458817,2.356942,8.584709,1.212629,1.037723,4.18484,-75.683578,-44.709747,-643.430359
1733469409,0.686837,2.260276,9.110835,0.870567,0.992174,4.48531,-75.427841,-43.159348,-643.989807
1733469409,-0.273687,2.067692,9.894487,0.453228,0.903318,4.723421,-75.095673,-41.464569,-644.414734
1733469409,-1.339107,1.937358,10.642526,0.005393,0.743399,4.907737,-74.870636,-39.566605,-644.916199
1733469409,-2.518999,2.004695,11.039664,-0.42136,0.558165,5.069642,-74.234573,-37.264313,-644.880249
1733469409,-3.696348,2.110489,11.316942,-0.801505,0.345848,5.261104,-73.653748,-35.05632,-644.5802
1733469409,-4.752191,2.200421,11.40044,-1.134913,0.203155,5.49113,-73.111526,-32.267685,-645.288513
1733469410,-6.142175,2.432359,11.420043,-1.466437,0.164115,5.71096,-72.316177,-29.530853,-645.116089
1733469410,-7.564031,2.689736,11.957691,-1.874274,0.118638,5.894922,-71.252869,-26.774338,-644.542236
1733469410,-9.084798,3.192369,12.820052,-2.367772,0.035724,6.038983,-70.115677,-23.617722,-644.745361
1733469410,-10.916213,3.718494,13.635577,-2.931718,-0.126337,6.111594,-68.967346,-20.555069,-644.276611
1733469410,-13.17185,4.004602,14.306402,-3.577348,-0.305159,6.078397,-67.475769,-17.20105,-642.963074
1733469410,-15.856199,4.509928,14.324509,-4.250613,-0.438986,5.913136,-65.554047,-13.883926,-641.962769
1733469410,-18.525734,5.130325,13.747656,-4.878679,-0.52574,5.667891,-63.874008,-10.686234,-640.356628
1733469410,-21.146936,5.930587,12.809877,-5.426796,-0.609211,5.325411,-61.862732,-7.702972,-639.120605
1733469410,-23.726239,6.944681,11.35091,-5.858799,-0.621017,4.875651,-60.134384,-4.604828,-636.234985
1733469410,-26.047118,7.886949,9.513809,-6.212503,-0.611704,4.320726,-58.165161,-2.043686,-634.369995
1733469410,-28.429798,8.966285,8.250569,-6.511335,-0.712585,3.636416,-56.420868,0.132645,-631.845337
1733469410,-30.886399,9.893141,6.799233,-6.721959,-0.833033,2.84133,-55.309097,1.986389,-628.838806
1733469410,-32.669331,10.699687,5.103839,-6.921659,-0.887299,1.994198,-54.116013,3.609161,-625.334961
1733469410,-33.694647,12.149975,3.352481,-7.112401,-0.852757,1.175867,-53.421967,4.580399,-622.166748
1733469410,-33.859997,13.82023,1.249175,-7.257133,-0.745465,0.480102,-52.977798,5.270615,-618.461975
1733469410,-33.269826,15.914857,-0.93748,-7.355833,-0.641473,-0.059819,-53.073227,5.31076,-615.239563
1733469410,-32.722751,18.149246,-3.330035,-7.329766,-0.53975,-0.463531,-53.017242,5.180237,-611.63269
1733469410,-32.416144,19.596391,-6.175843,-7.118242,-0.381678,-0.796045,-53.213211,4.743195,-608.342529
1733469410,-32.456696,20.194343,-9.107992,-6.760881,-0.118625,-1.147545,-53.859665,3.900955,-604.917725
1733469410,-32.445473,20.072538,-12.054805,-6.285714,0.269494,-1.5581,-54.881165,2.973969,-602.988403
1733469410,-31.941344,19.767127,-14.747085,-5.688188,0.760662,-1.978373,-55.760071,1.463165,-600.870972
1733469410,-30.787039,19.392884,-16.859968,-4.986251,1.220446,-2.381132,-56.906143,0.215897,-599.486328
1733469410,-29.376555,18.913595,-17.992276,-4.214361,1.578074,-2.762527,-58.425781,-1.27655,-597.929382
1733469410,-27.926417,18.763059,-18.084902,-3.521215,1.720918,-3.121177,-60.120804,-2.810242,-597.406921
1733469410,-26.429143,18.865262,-17.625664,-2.942525,1.750944,-3.435057,-61.734863,-4.228699,-597.307922
1733469410,-25.060408,18.968362,-17.697789,-2.41646,1.841599,-3.704111,-63.656204,-5.99234,-597.067017
1733469410,-23.703794,18.761263,-18.288409,-1.911278,2.049814,-3.953789,-65.449219,-7.595276,-597.363281
1733469410,-22.329971,18.504635,-18.57676,-1.410568,2.283769,-4.213558,-67.266022,-9.305984,-597.802063
1733469410,-20.917242,18.522891,-18.602498,-0.872113,2.501864,-4.456672,-69.462219,-11.114014,-597.411133
1733469410,-19.218556,18.606837,-18.49835,-0.293166,2.659472,-4.685835,-71.595932,-13.202133,-599.569824
1733469410,-17.4042,18.469171,-18.201918,0.305375,2.782874,-4.905493,-73.427994,-15.178558,-600.451965
1733469410,-15.452926,18.531869,-17.364696,0.874986,2.837795,-5.07532,-75.465454,-17.304886,-602.097717
1733469410,-13.613281,18.759468,-16.056564,1.405559,2.826431,-5.165621,-76.95845,-19.612839,-603.473022
1733469410,-11.79683,18.874838,-14.769381,1.886405,2.793984,-5.189439,-78.614029,-21.87619,-605.457642
1733469410,-10.271424,18.855236,-13.345729,2.302922,2.706335,-5.1694,-79.863541,-24.260239,-607.249878
1733469410,-8.752303,18.718916,-11.924022,2.648672,2.586647,-5.082076,-80.789322,-26.472183,-609.07605
1733469410,-7.217321,18.371308,-10.919804,2.942814,2.516922,-4.929636,-82.006622,-28.83725,-611.007141
1733469410,-5.85936,17.79251,-10.421661,3.215676,2.596177,-4.693264,-82.578613,-30.890305,-611.897888
1733469410,-4.608389,17.139042,-10.015843,3.467412,2.821347,-4.390028,-83.274994,-33.193451,-613.189209
1733469410,-3.657442,16.254983,-9.444228,3.698472,3.145307,-4.080062,-83.606598,-35.363846,-615.635864
1733469410,-2.881122,15.331121,-8.507945,3.910795,3.45504,-3.78112,-84.051773,-37.568207,-617.390625
1733469410,-2.078317,14.409952,-7.184401,4.103923,3.672867,-3.492763,-84.210526,-39.587143,-619.34137
1733469410,-1.342249,13.318196,-5.954679,4.269632,3.841641,-3.242323,-84.3228,-41.374283,-621.574829
1733469410,-0.756568,12.228086,-4.980688,4.41478,4.022264,-3.040025,-84.175217,-43.395706,-623.25354
1733469410,-0.098312,11.488577,-3.523517,4.526405,4.109257,-2.837718,-83.828522,-45.401321,-624.85376
1733469410,0.605134,11.163713,-1.686266,4.546443,4.093167,-2.616163,-83.283218,-47.306,-626.698181
1733469410,1.338209,10.796203,0.228946,4.457528,3.938813,-2.355401,-82.725174,-48.851181,-628.155334
1733469410,2.365471,10.451139,2.055422,4.296899,3.619637,-2.036301,-82.027145,-50.585754,-629.663452
1733469410,3.378667,9.964368,3.36116,4.135029,3.206189,-1.656726,-81.313263,-52.046249,-629.877747
1733469410,4.395006,9.396344,4.037522,3.958329,2.841542,-1.212861,-80.709244,-53.152084,-631.303223
1733469410,5.193323,8.739584,4.144812,3.766406,2.635479,-0.702966,-80.521698,-54.073593,-632.411987
1733469410,5.745934,7.806743,3.945794,3.542536,2.66225,-0.164142,-79.990723,-54.800415,-632.778076
1733469410,5.964405,7.111677,3.890428,3.272931,2.857128,0.390332,-79.509186,-55.089127,-633.43457
1733469410,5.808932,6.570886,4.092738,2.972382,3.077855,0.911635,-79.045227,-55.399506,-634.574951
1733469410,5.584326,5.878364,4.482694,2.686961,3.243207,1.394275,-78.683975,-54.997864,-635.581665
1733469410,5.268291,5.428852,5.279514,2.435545,3.262931,1.858996,-78.583359,-54.748428,-636.50293
1733469410,4.871901,5.113566,6.315904,2.197937,3.096387,2.290676,-78.009537,-53.969467,-637.818481
1733469410,4.474314,4.541651,7.117213,2.013036,2.806376,2.702515,-77.766968,-53.432648,-638.765137
1733469410,4.0257,3.87322,7.529615,1.895095,2.476858,3.102397,-77.424149,-52.441833,-638.893311
1733469410,3.472939,3.588459,7.995287,1.82093,2.144058,3.507458,-77.255188,-51.142578,-640.082092
1733469410,2.933944,3.361758,8.72073,1.719315,1.790869,3.910347,-76.978882,-49.699005,-640.475769
1733469410,2.179472,3.163339,9.428965,1.561867,1.465755,4.29677,-76.93222,-48.064896,-641.13031
1733469410,1.13979,3.144934,9.917083,1.338082,1.291733,4.658401,-76.762772,-46.205231,-641.708801
1733469410,-0.008829,3.036297,10.462212,1.010073,1.224662,4.994808,-76.175323,-44.340118,-641.840698
1733469410,-1.638382,2.833238,11.496059,0.564658,1.21311,5.257704,-76.285812,-41.985107,-642.259277
1733469410,-3.803339,2.528576,12.699594,-0.075742,1.281037,5.383723,-75.650406,-39.477203,-642.804016
1733469410,-5.705981,1.826626,13.880384,-0.919644,1.316682,5.373489,-74.775604,-36.813629,-643.721924
1733469410,-7.044938,1.447744,14.318972,-1.763457,1.269743,5.328437,-74.32988,-34.033203,-643.635193
1733469410,-7.83308,1.735647,13.866917,-2.433282,1.113955,5.304583,-73.594513,-31.054459,-643.376099
1733469410,-8.376115,2.153435,13.186066,-2.876132,0.750363,5.324683,-72.248108,-27.934586,-643.974792
1733469410,-8.967632,2.859275,12.549807,-3.11458,0.285855,5.456826,-71.12204,-24.652222,-643.578857
1733469410,-9.858275,3.723732,11.88347,-3.235968,-0.142626,5.673732,-69.873657,-21.416382,-642.673889
1733469410,-11.80102,4.412963,11.733234,-3.361531,-0.467471,5.861096,-68.288361,-18.222519,-641.838135
1733469410,-14.355334,5.23567,12.097452,-3.618874,-0.648489,6.011901,-66.423035,-14.959076,-640.489746
1733469410,-17.313071,6.330419,12.758102,-4.124025,-0.700086,6.061163,-65.002716,-11.563492,-639.134033
1733469410,-21.24824,7.313987,13.026552,-4.912086,-0.64397,5.858888,-63.053299,-8.30423,-637.268677
1733469410,-25.087941,7.87019,12.195465,-5.845327,-0.420856,5.398049,-61.401688,-5.169617,-634.949097
1733469410,-28.393885,7.949049,9.742455,-6.699707,-0.124439,4.668514,-59.625427,-2.839401,-632.555115
1733469410,-31.391575,8.260894,6.748207,-7.309432,-0.051013,3.680399,-58.11705,-0.7724,-629.07251
1733469410,-33.764827,8.67928,3.595642,-7.564004,-0.295145,2.547375,-57.298538,1.1371,-626.024292
1733469410,-34.820072,9.317485,0.027533,-7.44147,-0.66365,1.457782,-56.467377,2.043625,-622.89209
1733469410,-34.950257,10.464307,-3.30325,-7.062844,-0.976972,0.587569,-55.851929,2.680252,-619.454834
1733469410,-34.475307,11.908759,-6.142773,-6.627777,-1.03867,-0.022065,-55.914749,2.874542,-616.62146
1733469410,-33.788171,13.51467,-8.369979,-6.255988,-0.841281,-0.423189,-56.018219,2.832825,-614.12915
1733469410,-32.920871,14.292636,-10.042329,-5.949255,-0.418443,-0.686689,-56.757065,2.370895,-611.165588
1733469410,-32.080207,13.94832,-11.121965,-5.721562,0.071763,-0.99333,-57.488007,1.745483,-609.547302
1733469410,-31.973067,14.065037,-11.137676,-5.668636,0.412705,-1.446727,-58.777725,1.037384,-607.473328
1733469410,-31.52161,14.385112,-11.303924,-5.657811,0.528454,-1.974626,-59.767365,-0.067749,-605.687134
1733469410,-30.606726,14.899267,-12.651111,-5.519549,0.543289,-2.507738,-60.801956,-1.347107,-603.209106
1733469410,-29.417406,15.890466,-14.474445,-5.233933,0.482974,-2.987894,-62.00679,-3.003418,-602.126343
1733469410,-28.171972,16.914287,-16.521637,-4.763347,0.470368,-3.345533,-63.835709,-4.73703,-601.063477
1733469410,-26.875363,17.310976,-19.17576,-4.081755,0.680923,-3.618105,-65.390915,-6.563248,-600.151917
1733469410,-25.452907,16.930747,-21.439777,-3.270036,1.03044,-3.853732,-67.330383,-8.307678,-599.897217
1733469410,-23.879618,16.704644,-22.263981,-2.461981,1.366776,-4.080021,-68.867981,-10.281235,-599.973267
1733469410,-22.291364,16.962919,-21.997476,-1.718035,1.5834,-4.311038,-70.755569,-12.113525,-600.082214
1733469410,-20.535367,17.275961,-21.007025,-1.064596,1.642624,-4.536246,-72.409225,-14.112167,-600.588135
1733469410,-18.614619,17.332224,-20.170999,-0.470879,1.650276,-4.694767,-73.826294,-16.195312,-601.654541
1733469410,-16.748039,17.178247,-19.84464,0.122015,1.735278,-4.779591,-75.627228,-18.118195,-602.412964
1733469410,-15.067459,16.836325,-19.589657,0.719164,1.93611,-4.765284,-77.44249,-20.267365,-603.043823
1733469410,-13.41531,16.490513,-18.941128,1.289152,2.250215,-4.69155,-78.787659,-22.128265,-604.839844
1733469411,-12.215965,16.381128,-17.646014,1.7716,2.583702,-4.627904,-79.94339,-24.363815,-606.658691
1733469411,-11.038317,16.465224,-15.902736,2.17717,2.805411,-4.565598,-81.098251,-26.401382,-608.544678
1733469411,-9.714024,16.437092,-13.906421,2.528552,2.845332,-4.516179,-81.098251,-26.401382,-608.544678
1733469411,-8.457966,16.325014,-12.06543,2.851274,2.684393,-4.470386,-83.190796,-30.905228,-611.903992
1733469411,-7.116166,15.90962,-10.49603,3.173919,2.358327,-4.428542,-83.190796,-30.905228,-611.903992
1733469411,-5.832425,15.268123,-9.325266,3.47696,1.978576,-4.375711,-83.422928,-33.10936,-612.92572
1733469411,-4.679467,14.46831,-8.609549,3.760113,1.668851,-4.298687,-83.916397,-35.186508,-614.224304
1733469411,-3.755006,13.689895,-8.176648,4.012945,1.510998,-4.19712,-84.304504,-37.573746,-615.021667
1733469411,-2.983475,13.179182,-7.681497,4.216621,1.50063,-4.043222,-84.247406,-39.632431,-616.021851
1733469411,-2.160917,12.813169,-7.017854,4.340975,1.657475,-3.842313,-84.224243,-41.900635,-616.33374
1733469411,-1.351377,12.35842,-6.283582,4.366842,1.978826,-3.59908,-84.391678,-43.867599,-617.514526
1733469411,-0.4543,11.855937,-5.385906,4.309997,2.386347,-3.296999,-84.223785,-45.574646,-618.466064
1733469411,0.378284,11.443685,-4.529231,4.22204,2.830628,-2.938689,-83.639771,-47.73143,-620.000977
1733469411,0.934038,11.050587,-3.581127,4.167437,3.200835,-2.553747,-83.630127,-49.208267,-621.063171
1733469411,1.593491,10.718242,-2.533963,4.154102,3.472309,-2.147497,-83.219727,-50.610519,-622.474915
1733469411,2.164957,10.147375,-1.303643,4.154078,3.660179,-1.739643,-83.12645,-51.84967,-623.677917
1733469411,2.721908,9.394398,0.155922,4.089701,3.770748,-1.32931,-82.455597,-52.88591,-624.801086
1733469411,3.287089,8.832808,1.472584,3.952102,3.75457,-0.891453,-81.961472,-53.894394,-625.979065
1733469411,3.697246,8.438064,2.42772,3.849818,3.684988,-0.406609,-81.55748,-54.53952,-627.332947
1733469411,4.010886,8.194305,3.176058,3.809145,3.578953,0.125362,-80.998459,-54.966599,-627.871582
1733469411,4.289063,7.929596,4.356848,3.789521,3.409004,0.686875,-80.807678,-55.242188,-629.233643
1733469411,4.590133,7.321768,5.868338,3.690049,3.208837,1.220823,-80.68129,-55.272369,-629.927673
1733469411,4.559159,6.291962,7.393744,3.442256,2.990861,1.681346,-80.491074,-55.092194,-630.973145
1733469411,4.328717,5.175217,8.779687,3.030572,2.803206,2.031601,-80.139755,-54.558853,-631.969482
1733469411,4.132093,4.339191,9.563339,2.534329,2.658369,2.345097,-80.033051,-53.911575,-632.945801
1733469411,3.889381,3.661483,10.037541,2.092819,2.517994,2.679475,-79.928284,-52.787094,-633.898682
1733469411,3.478027,3.119046,10.384401,1.713818,2.374189,3.014722,-79.937775,-51.745819,-634.522217
1733469411,2.830695,2.761113,10.651055,1.335744,2.204467,3.314339,-79.436752,-50.423935,-635.080872
1733469411,2.289306,2.540697,10.944943,0.976013,1.974461,3.610327,-79.586578,-48.888153,-636.005066
1733469411,1.839345,2.374599,11.084256,0.642092,1.742748,3.90458,-79.351364,-47.164246,-636.627258
1733469411,1.35452,2.390311,11.039813,0.289474,1.549226,4.213209,-79.075089,-45.313339,-637.589783
1733469411,0.8257,2.615815,10.95437,-0.075848,1.409866,4.565099,-78.66449,-43.108276,-638.238281
1733469411,-0.094421,2.571971,10.811467,-0.417571,1.31687,4.904339,-78.049194,-40.729202,-639.081055
1733469411,-1.469292,2.344372,10.637887,-0.71613,1.287977,5.204304,-77.486359,-38.210403,-639.52002
1733469411,-3.073856,2.104054,11.025448,-1.04033,1.288043,5.485171,-76.637955,-35.430161,-640.240967
1733469411,-5.044433,1.963844,12.164041,-1.465541,1.265993,5.699243,-75.783615,-32.422073,-640.160461
1733469411,-7.315184,2.26686,13.631238,-2.029852,1.200412,5.847173,-74.573593,-29.545273,-640.656982
1733469411,-9.525631,2.518102,14.795867,-2.694457,1.066962,5.935069,-73.450653,-26.185425,-640.891724
1733469411,-11.632827,3.028366,15.336358,-3.36933,0.887171,6.001006,-71.526001,-22.833328,-640.42804
1733469411,-14.041993,3.812467,15.12926,-4.018165,0.634779,6.01309,-70.056122,-19.261459,-640.126831
1733469411,-17.446697,3.804686,14.80709,-4.660549,0.286508,5.797737,-68.665436,-16.07402,-638.983704
1733469411,-21.55006,3.684377,14.051719,-5.294498,-0.066696,5.323029,-66.780151,-12.681686,-637.725464
1733469411,-25.141063,3.86484,12.641684,-5.887486,-0.394297,4.69837,-65.185318,-9.62149,-635.826172
1733469411,-28.207287,4.335001,10.754305,-6.400391,-0.663293,3.993234,-63.624512,-6.826584,-633.413879
1733469411,-30.645482,5.210531,8.450484,-6.820464,-0.812162,3.292717,-62.494385,-4.519257,-630.61261
1733469411,-32.56219,6.336554,5.621735,-7.113426,-0.845795,2.59397,-61.554642,-2.833954,-627.752014
1733469411,-34.448671,7.564031,2.851494,-7.254245,-0.867293,1.822182,-60.805908,-1.406021,-624.598511
1733469411,-35.739894,8.807071,0.283264,-7.243045,-0.858099,1.061121,-60.147095,-0.366913,-621.301758
1733469411,-35.77072,10.316016,-2.390161,-7.162035,-0.751751,0.405908,-59.880707,0.145157,-617.498535
1733469411,-35.340511,11.830648,-4.905869,-7.079044,-0.56979,-0.161335,-59.915146,0.238464,-615.105225
1733469411,-34.690186,12.97388,-7.356783,-6.982357,-0.290552,-0.654283,-60.31073,-0.183456,-612.302002
1733469411,-33.926286,13.747955,-9.867702,-6.818758,-0.025557,-1.132975,-60.762039,-0.711639,-609.657043
1733469411,-33.49129,14.234127,-12.307992,-6.458652,0.114605,-1.646177,-61.872437,-1.497391,-607.890869
1733469411,-33.18154,14.676606,-14.773421,-5.85249,0.168732,-2.184084,-62.851242,-2.981949,-605.736511
1733469411,-32.27713,14.904205,-16.7021,-5.099472,0.15583,-2.694166,-63.966385,-4.40097,-604.440002
1733469411,-30.511856,14.810382,-18.026393,-4.345848,0.12898,-3.11066,-65.216553,-5.960251,-603.391541
1733469411,-28.427853,14.563181,-19.052758,-3.639794,0.248367,-3.406716,-66.298599,-7.629318,-602.008484
1733469411,-26.429891,14.455591,-19.757251,-3.037796,0.55878,-3.636941,-67.92305,-9.259872,-601.524963
1733469411,-24.449587,14.301165,-19.725977,-2.514892,0.948405,-3.783475,-69.377136,-11.177124,-600.559509
1733469411,-22.49966,14.411448,-19.177855,-2.064838,1.328451,-3.864452,-71.121506,-12.868057,-601.201355
1733469411,-20.641759,14.368652,-18.384925,-1.659208,1.621548,-3.934947,-72.777878,-14.749283,-602.10376
1733469411,-18.919281,14.111275,-17.791761,-1.267073,1.852055,-4.011291,-74.188751,-16.691132,-602.468201
1733469411,-17.346141,14.0803,-17.4663,-0.850993,2.020501,-4.107131,-75.636414,-18.62973,-603.316223
1733469411,-15.83525,14.122198,-17.227328,-0.412687,2.170984,-4.210629,-77.161026,-20.797043,-604.650391
1733469411,-14.457686,14.087632,-17.000029,0.044498,2.29283,-4.323388,-78.447815,-22.807999,-605.653503
1733469411,-13.120375,14.097957,-16.556802,0.51806,2.395576,-4.451658,-79.890091,-24.8647,-606.883484
1733469411,-11.567735,14.230087,-15.704167,1.008334,2.394367,-4.548851,-80.794937,-27.073593,-608.271545
1733469411,-9.79034,14.585177,-14.459931,1.487666,2.259022,-4.569562,-81.925552,-29.378998,-609.74707
1733469411,-7.931242,14.965855,-13.203424,1.945498,2.014758,-4.488512,-82.640106,-31.476608,-609.890381
1733469411,-6.168062,14.924406,-12.30066,2.367902,1.796062,-4.338114,-83.056625,-33.49176,-611.830566
1733469411,-4.711789,14.484022,-11.679215,2.736846,1.703259,-4.130983,-83.240616,-35.583542,-612.789307
1733469411,-3.473238,13.922732,-11.388918,3.04828,1.865761,-3.842136,-83.68071,-37.53418,-614.244385
1733469411,-2.419191,13.53951,-10.919654,3.296501,2.204407,-3.479198,-83.884995,-39.20845,-615.27002
1733469411,-1.506701,13.187412,-9.925612,3.469339,2.59437,-3.083892,-84.074966,-40.885712,-616.687683
1733469411,-0.84665,12.751368,-8.756493,3.591661,2.977182,-2.694026,-84.115814,-42.359375,-618.293091
1733469411,-0.244807,12.004677,-7.571064,3.707292,3.276789,-2.328405,-83.671021,-43.924042,-620.087402
1733469411,0.350601,11.130195,-6.356456,3.831684,3.501937,-1.999035,-84.055328,-44.999283,-621.799072
1733469411,0.653767,10.499173,-5.06209,3.945497,3.603096,-1.717337,-83.853271,-46.161667,-623.030579
1733469411,0.964115,10.003573,-3.612701,4.053249,3.565704,-1.477689,-83.960541,-47.181824,-624.19397
1733469411,1.375768,9.636063,-2.122011,4.127231,3.390458,-1.254784,-83.280182,-48.166229,-625.906494
1733469411,1.914164,9.35265,-0.72664,4.158932,3.104402,-1.014573,-83.02504,-49.125946,-626.58728
1733469411,2.643797,9.059809,0.512808,4.15577,2.784672,-0.724591,-82.66748,-49.743484,-627.743042
1733469411,3.240402,8.589797,1.390133,4.113076,2.555272,-0.386026,-82.322891,-50.331268,-628.209839
1733469411,3.639336,8.082226,1.780987,4.023613,2.508079,0.004249,-82.127533,-50.802246,-629.140808
1733469411,3.916615,7.574356,2.0852,3.898245,2.606669,0.408901,-81.7957,-51.142273,-630.240662
1733469411,3.876212,6.915352,2.502689,3.772246,2.775843,0.783653,-81.480286,-51.08371,-631.09436
1733469411,3.731962,6.274604,3.459771,3.648499,2.95153,1.139245,-80.794571,-51.048019,-632.262451
1733469411,3.645471,5.757905,5.054609,3.449659,3.001742,1.477372,-80.90123,-50.764084,-632.998291
1733469411,3.387496,5.298518,6.987478,3.152533,2.836344,1.795125,-80.610901,-50.480743,-633.428467
1733469411,3.164985,4.730793,8.622568,2.82185,2.522257,2.103991,-80.125015,-49.754929,-635.040405
1733469411,3.13386,4.239233,9.869797,2.484526,2.13121,2.452104,-80.083618,-48.79509,-635.133606
1733469411,2.93155,3.77401,10.664522,2.117419,1.754888,2.813452,-79.5159,-47.759018,-635.906189
1733469411,2.414852,3.476082,10.641029,1.720882,1.56629,3.176186,-79.480392,-46.471695,-636.432983
1733469411,1.760636,3.084031,10.210223,1.3215,1.532782,3.523836,-79.451126,-44.780762,-637.063904
1733469411,1.014094,2.453757,9.976189,0.938464,1.554826,3.83107,-78.886078,-43.238968,-637.888794
1733469411,-0.048931,1.966687,9.842114,0.561302,1.649075,4.068085,-78.375153,-41.364197,-638.44928
1733469411,-1.414524,1.413028,10.359411,0.132721,1.706483,4.212843,-78.032166,-39.256424,-639.386047
1733469411,-2.536956,0.706439,11.238233,-0.319614,1.611311,4.312268,-77.153137,-36.861816,-640.246033
1733469411,-3.624821,0.677858,11.876737,-0.737493,1.422936,4.403676,-76.357971,-34.819397,-639.77063
1733469411,-4.947318,0.835876,12.165986,-1.146755,1.200272,4.479506,-75.585495,-32.353149,-640.982788
1733469412,-6.265177,0.832135,12.42456,-1.529263,0.925474,4.550525,-74.624252,-29.871979,-640.830627
1733469412,-7.425766,1.095347,12.624326,-1.883537,0.63037,4.642606,-73.792175,-27.114761,-640.727722
1733469412,-8.553136,1.439963,12.877214,-2.250478,0.309429,4.770977,-72.546844,-24.334229,-640.330383
1733469412,-9.896283,1.290924,13.219884,-2.681132,0.001893,4.91639,-71.71019,-21.46048,-639.73584
1733469412,-12.343456,1.431284,13.483994,-3.180857,-0.275424,4.966194,-70.21106,-18.597839,-638.973022
1733469412,-15.446342,1.900398,13.344382,-3.72691,-0.492312,4.917196,-68.819824,-15.562775,-637.799194
1733469412,-18.365322,2.161066,12.542325,-4.241026,-0.691487,4.806859,-67.05751,-12.75032,-636.078857
1733469412,-21.587768,2.69213,11.199327,-4.667997,-0.817522,4.637012,-65.694885,-9.962234,-634.003418
1733469412,-24.90673,3.38585,9.636213,-5.103819,-0.821419,4.385578,-64.202087,-7.555237,-631.569458
1733469412,-28.342859,3.301754,8.170812,-5.645472,-0.774435,3.94947,-62.994995,-5.346924,-629.80072
1733469412,-31.690701,3.537433,6.090101,-6.150889,-0.690715,3.321874,-61.986053,-3.572403,-627.340942
1733469412,-34.145356,4.189254,3.075202,-6.450319,-0.63502,2.55908,-61.383102,-2.132172,-624.469971
1733469412,-35.347544,4.746654,0.126743,-6.520068,-0.716814,1.771325,-60.770081,-1.363068,-621.8125
1733469412,-35.966894,5.974132,-2.225111,-6.50273,-0.864097,1.004658,-60.779755,-0.869263,-619.267883
1733469412,-36.150649,7.120206,-4.467281,-6.468895,-0.988985,0.289439,-60.768555,-0.862366,-616.848877
1733469412,-35.737799,9.238476,-9.776124,-6.07158,-1.062967,-1.021663,-61.132492,-1.175522,-614.244263
1733469412,-35.263298,10.460566,-12.167183,-6.07158,-1.062967,-1.021663,-61.714005,-1.996933,-611.77832
1733469412,-35.263298,10.460566,-12.167183,-5.618777,-1.101966,-1.580289,-62.546219,-2.830917,-609.053284
1733469412,-32.672623,11.231499,-17.041628,-5.039543,-1.025505,-2.023579,-63.394653,-3.930786,-607.070435
1733469412,-30.736162,11.114034,-18.48204,-4.405214,-0.766696,-2.354576,-64.748337,-5.012894,-605.915955
1733469412,-28.83352,11.040262,-18.662054,-3.80766,-0.377127,-2.569623,-65.667389,-6.367081,-604.746033
1733469412,-27.415854,11.550078,-18.109891,-3.082685,0.398971,-2.941539,-66.870865,-7.614059,-604.079102
1733469412,-27.415854,11.550078,-18.109891,-3.082685,0.398971,-2.941539,-68.17366,-9.181519,-603.511414
1733469412,-24.835802,12.657396,-18.27973,-2.569959,0.860981,-3.337129,-69.428696,-10.849121,-603.468079
1733469412,-23.564032,12.624625,-19.484612,-2.061535,0.979947,-3.573153,-71.032135,-12.523407,-603.110352
1733469412,-22.118084,12.546664,-20.370915,-1.409305,1.026624,-3.824764,-72.395065,-14.382675,-603.11554
1733469412,-20.683957,12.689867,-20.432566,-0.722031,1.029613,-4.073575,-73.891464,-16.324097,-603.683777
1733469412,-18.94846,12.744934,-20.077925,-0.070732,1.089479,-4.261587,-75.162872,-18.123108,-604.55072
1733469412,-17.460763,13.104812,-19.222147,0.453955,1.209245,-4.432783,-76.465851,-20.110077,-604.843201
1733469412,-15.931317,13.452421,-18.029985,0.848961,1.366479,-4.559427,-77.849564,-22.0793,-606.100891
1733469412,-14.207193,13.757831,-16.886903,1.175596,1.532999,-4.626912,-79.06958,-24.29483,-606.69397
1733469412,-12.50282,13.938892,-15.714193,1.478083,1.61083,-4.661912,-80.003998,-26.428848,-607.770935
1733469412,-10.917859,14.048876,-14.519786,1.793854,1.603563,-4.656653,-80.952454,-28.79744,-609.0802
1733469412,-9.361777,14.099753,-13.558963,2.111621,1.580644,-4.604609,-82.107864,-31.043457,-609.892761
1733469412,-7.969699,14.069676,-12.39134,2.401232,1.533345,-4.50978,-82.580551,-33.137772,-610.725769
1733469412,-6.720374,14.137013,-11.322329,2.655297,1.535052,-4.366232,-83.226685,-35.247665,-611.642151
1733469412,-5.597045,13.958345,-10.603171,2.865276,1.645116,-4.182807,-83.404053,-37.482925,-612.557739
1733469412,-4.508431,13.440749,-10.082582,3.033995,1.880667,-3.96245,-83.603073,-39.623276,-613.982239
1733469412,-3.434183,12.996325,-9.496152,3.196903,2.201975,-3.694386,-83.548126,-41.525833,-614.269836
1733469412,-2.364274,12.509853,-8.863933,3.376723,2.5857,-3.384101,-83.875534,-43.199402,-615.825195
1733469412,-1.32549,12.043433,-7.952341,3.568778,2.956637,-3.049074,-84.038864,-45.020706,-617.693787
1733469412,-0.317232,11.493215,-6.455516,3.741666,3.202793,-2.718697,-83.929977,-46.531601,-619.001221
1733469412,0.6605,10.785579,-4.733636,3.872813,3.286055,-2.41345,-83.887436,-47.846542,-620.273254
1733469412,1.528099,9.989507,-3.06398,3.968172,3.250546,-2.129485,-83.745453,-49.294739,-621.647278
1733469412,2.270451,9.393351,-1.515979,3.989016,3.167872,-1.86087,-83.414459,-50.487854,-622.823853
1733469412,2.895338,8.836549,-0.085144,3.922643,3.071476,-1.583985,-83.053894,-51.553513,-623.775635
1733469412,3.500772,8.39033,1.277905,3.767663,2.966519,-1.265808,-82.708221,-52.474686,-624.685791
1733469412,3.985298,7.985111,2.453608,3.520783,2.848761,-0.926654,-82.507294,-53.196396,-625.482422
1733469412,4.395305,7.512406,3.137751,3.254419,2.746619,-0.566818,-82.021378,-53.763535,-625.584839
1733469412,4.689493,6.848913,3.025373,3.042674,2.736936,-0.210641,-82.021378,-53.763535,-625.584839
1733469412,4.941782,5.921908,2.487725,2.970054,2.841053,0.162491,-81.991058,-53.951416,-627.440979
1733469412,5.138855,5.31812,2.445378,2.978228,2.99749,0.557044,-81.737686,-54.279663,-628.336609
1733469412,5.180753,4.994155,3.343802,2.974281,3.050531,0.96912,-81.101532,-54.260757,-629.419922
1733469412,5.13257,4.704457,5.001487,2.910346,2.972654,1.393607,-80.94928,-54.099762,-630.381287
1733469412,4.908862,4.446781,6.813,2.754439,2.778621,1.814507,-80.445404,-53.746216,-631.151733
1733469412,4.50484,3.954772,8.521862,2.483351,2.50528,2.213938,-80.308426,-53.207626,-632.151001
1733469412,4.08795,3.583821,9.960627,2.070584,2.20094,2.594747,-80.208847,-52.692535,-633.172974
1733469412,3.461567,3.280356,10.763134,1.566411,1.969801,2.942224,-79.749069,-51.541672,-633.381653
1733469412,2.333299,2.639907,10.638336,1.080573,1.864463,3.237797,-79.605392,-50.440536,-634.025757
1733469412,1.474379,2.333299,10.020781,0.741394,1.849772,3.588907,-79.265396,-48.98642,-634.629639
1733469412,0.52029,2.191293,9.578453,0.52073,1.838476,3.942245,-79.297226,-47.346024,-636.047424
1733469412,-0.65242,1.653944,9.5382,0.356681,1.779493,4.244683,-78.799164,-45.379959,-637.009155
1733469412,-1.793107,1.296311,9.87683,0.192892,1.701074,4.524894,-78.656509,-43.405029,-637.576294
1733469412,-3.101988,1.022623,11.077672,-0.069801,1.556464,4.738832,-77.909378,-41.437424,-637.897095
1733469412,-4.597765,0.808193,12.788479,-0.492939,1.334738,4.878357,-77.558838,-38.969421,-638.623901
1733469412,-6.211307,0.68115,14.270639,-1.052712,1.058147,4.958971,-76.819565,-36.637878,-639.545715
1733469412,-7.789385,0.56578,15.329325,-1.674354,0.759324,5.035982,-76.052338,-34.134628,-640.061157
1733469412,-9.700407,0.422876,15.920244,-2.321059,0.436138,5.0434,-75.373199,-31.257812,-639.908997
1733469412,-11.935843,0.573112,15.907974,-2.920603,0.124881,4.986448,-74.289062,-28.290146,-639.95459
1733469412,-13.955353,0.712125,15.101128,-3.397925,-0.118157,4.917178,-73.301239,-25.364243,-639.221497
1733469412,-15.963639,0.878672,14.116662,-3.814311,-0.252729,4.822248,-71.87825,-22.422104,-638.49884
1733469412,-18.345271,1.426346,13.400646,-4.275551,-0.251245,4.691864,-70.833755,-19.387283,-637.704712
1733469412,-20.71972,1.733851,12.968792,-4.857856,-0.184198,4.516841,-69.683212,-16.54126,-636.858032
1733469412,-23.375638,2.441487,12.784887,-5.590143,-0.131909,4.236398,-68.033447,-13.630447,-635.34259
1733469412,-26.59973,3.157353,12.12319,-6.398122,-0.206453,3.774086,-66.883789,-10.69249,-633.727173
1733469412,-29.724762,3.9434,9.809643,-7.04822,-0.314267,3.164984,-65.701935,-8.383713,-631.355347
1733469412,-32.055367,5.213673,6.258294,-7.470465,-0.465973,2.484922,-64.689499,-6.332458,-628.692261
1733469412,-33.816153,6.54485,2.768595,-7.679287,-0.787597,1.759137,-63.579147,-4.626907,-625.515137
1733469412,-35.771767,7.945158,-0.64823,-7.692891,-1.198351,0.957193,-63.078232,-3.315094,-622.607666
1733469412,-37.25303,8.928427,-4.866215,-7.491216,-1.43391,0.129663,-62.963974,-2.950333,-619.82605
1733469412,-37.809981,9.302671,-9.255684,-7.080387,-1.484742,-0.690147,-63.059158,-2.964478,-615.577881
1733469412,-37.730224,9.86456,-13.002161,-6.505917,-1.450964,-1.444697,-63.198196,-3.179749,-613.132324
1733469412,-36.820427,10.346991,-16.344915,-5.819506,-1.208757,-2.067735,-63.998077,-3.886246,-610.367615
1733469412,-35.090018,10.951677,-18.794034,-5.121169,-0.823251,-2.516274,-64.627533,-5.127762,-608.548096
1733469412,-33.002274,11.775731,-19.748273,-4.509011,-0.421841,-2.831527,-65.661942,-6.310547,-606.398438
1733469412,-31.150359,12.321759,-19.822793,-4.00558,-0.081611,-3.114002,-66.89389,-8.058914,-605.270081
1733469412,-29.590986,12.898013,-19.762189,-3.614026,0.230785,-3.382373,-68.333557,-9.608398,-604.077393
1733469412,-27.889756,13.598168,-19.932926,-3.266765,0.503964,-3.611599,-69.364594,-11.257477,-603.380249
1733469412,-25.944018,14.161852,-20.668395,-2.859809,0.806191,-3.772289,-70.890137,-13.108322,-602.499634
1733469412,-23.97778,14.277373,-21.754464,-2.352921,1.137212,-3.91488,-72.286102,-15.098816,-602.754639
1733469412,-21.982213,14.139706,-22.508788,-1.73128,1.425506,-4.047501,-73.729294,-17.18689,-603.343933
1733469412,-19.937864,13.917195,-22.722171,-1.021259,1.661845,-4.158336,-75.190308,-18.911163,-603.67688
1733469412,-17.905336,13.701418,-22.527492,-0.264998,1.880188,-4.233075,-76.467957,-21.086777,-604.577759
1733469412,-16.067038,13.639916,-21.777359,0.467601,2.061281,-4.291638,-78.054947,-23.130295,-605.58429
1733469412,-14.452149,13.643957,-20.412514,1.118614,2.189874,-4.347648,-78.946457,-25.241821,-606.732361
1733469412,-12.875268,13.731345,-18.537106,1.667245,2.239617,-4.37151,-80.020172,-27.256897,-608.182739
1733469412,-11.300033,13.884724,-16.402227,2.115922,2.223262,-4.356662,-80.860596,-29.475357,-609.803772
1733469412,-9.825205,13.980043,-14.537293,2.45868,2.19908,-4.319035,-81.76503,-31.500916,-610.539673
1733469412,-8.355016,13.911658,-12.934824,2.714755,2.192998,-4.222368,-82.3284,-33.776367,-611.628601
1733469412,-6.816292,13.734787,-11.784261,2.913468,2.323153,-4.026276,-82.634369,-35.622391,-613.407959
1733469413,-5.279664,13.349769,-11.039365,3.072999,2.577423,-3.755098,-83.162033,-37.778534,-614.875671
1733469413,-3.956867,12.807034,-10.182689,3.22969,2.901753,-3.430582,-83.279739,-39.528961,-616.458923
1733469413,-2.709638,12.386851,-9.413702,3.379422,3.291235,-3.052495,-83.770508,-41.257141,-618.117737
1733469413,-1.496376,11.769596,-8.549096,3.520221,3.65545,-2.654648,-83.746185,-42.89563,-619.7948
1733469413,-0.455198,10.993575,-7.346907,3.671049,3.92662,-2.274954,-83.68988,-44.406555,-621.512634
1733469413,0.518045,10.55005,-5.988647,3.803412,4.095942,-1.88161,-83.356155,-45.812729,-623.40387
1733469413,1.447295,10.460267,-4.496909,3.8951,4.152033,-1.445664,-82.865875,-46.953262,-625.242004
1733469413,2.236184,10.535535,-3.306542,3.946809,4.223587,-0.957887,-82.441315,-47.914261,-626.828735
1733469413,2.749441,10.521469,-2.272696,3.947579,4.287796,-0.459355,-82.054123,-48.81723,-628.086731
1733469413,3.224241,10.110115,-1.172261,3.904087,4.317008,0.048786,-81.264786,-49.332458,-630.556274
1733469413,3.80708,9.415946,-0.432752,3.865288,4.349516,0.569307,-80.850998,-49.782761,-632.036255
1733469413,4.250755,8.859294,-0.054169,3.870552,4.436063,1.087927,-80.171234,-50.040924,-634.162354
1733469413,4.562151,8.320449,0.3922,3.900355,4.571456,1.598896,-79.686111,-50.101562,-635.76123
1733469413,4.887164,8.107216,1.496975,3.916514,4.603374,2.123689,-78.936676,-49.876144,-637.178101
1733469413,4.962133,8.182633,3.166631,3.899403,4.536636,2.694208,-77.953644,-49.756134,-638.626709
1733469413,4.359392,8.15899,5.191228,3.793015,4.375641,3.223036,-77.460251,-49.058014,-640.427734
1733469413,3.400515,7.660697,7.77502,3.488424,4.075054,3.63708,-76.540176,-48.384476,-641.968628
1733469413,2.502988,6.997354,10.105925,2.984891,3.621238,3.952709,-76.006897,-47.398697,-643.064209
1733469413,1.600973,6.373963,11.694029,2.408668,3.102054,4.192758,-75.052856,-46.266052,-643.574829
1733469413,0.772579,5.854422,12.414983,1.853948,2.59901,4.423778,-74.157257,-44.921875,-644.766113
1733469413,-0.031574,5.523723,12.394932,1.360561,2.206398,4.690776,-73.436066,-43.383896,-645.607544
1733469413,-1.332523,4.906168,12.025776,0.911444,1.975723,4.918359,-73.023026,-41.44252,-646.827881
1733469413,-3.254019,3.575291,11.609484,0.446134,1.917764,5.000303,-72.200409,-39.545578,-647.216858
1733469413,-5.066729,2.248305,11.355549,-0.037418,1.963422,4.99214,-71.058258,-37.355347,-648.242554
1733469413,-6.490381,1.477522,11.473314,-0.540656,1.956747,4.918928,-70.332352,-35.464752,-648.614014
1733469413,-7.815572,0.651223,11.812392,-1.062155,1.861579,4.759034,-69.172516,-33.240463,-649.705261
1733469413,-8.853907,-0.018106,12.029816,-1.568668,1.694548,4.581447,-67.934616,-30.795074,-649.981323
1733469413,-9.614964,-0.167145,12.316821,-2.06991,1.413781,4.442875,-66.557831,-28.633179,-650.108887
1733469413,-10.595539,0.122404,12.935423,-2.603842,1.00677,4.324305,-65.462097,-26.038132,-649.344177
1733469413,-11.890503,0.478092,13.508535,-3.154997,0.432348,4.22721,-64.413696,-23.410141,-649.357056
1733469413,-13.580959,1.002572,13.182923,-3.614119,-0.127032,4.145086,-63.404327,-20.793503,-648.499268
1733469413,-15.8972,1.662474,11.801768,-3.975465,-0.455141,4.037982,-62.342926,-17.697922,-646.959961
1733469413,-18.32492,2.131737,10.511443,-4.365203,-0.576133,3.864785,-61.301636,-15.04982,-646.117004
1733469413,-20.796784,2.660257,9.684396,-4.847929,-0.60295,3.618995,-60.502533,-12.348862,-644.359558
1733469413,-23.275231,3.317466,8.694094,-5.422174,-0.525237,3.293308,-59.233368,-9.889648,-642.807678
1733469413,-25.734825,4.15379,7.463774,-6.106932,-0.394778,2.84305,-58.01329,-7.270111,-640.406982
1733469413,-28.150574,5.180603,5.761048,-6.790841,-0.368191,2.230441,-57.515671,-4.969116,-637.586609
1733469413,-30.063092,5.959617,3.058742,-7.254329,-0.534431,1.511196,-56.66124,-2.915344,-634.868591
1733469413,-31.590743,7.105991,-0.478391,-7.40236,-0.807629,0.772866,-56.648254,-1.229233,-632.411133
1733469413,-32.496499,8.265532,-4.16217,-7.283515,-1.047893,0.088867,-56.439026,-0.223328,-628.350586
1733469413,-32.683696,9.248951,-7.685088,-7.013472,-1.086736,-0.459787,-56.893021,0.972672,-625.873047
1733469413,-32.411206,10.458322,-10.77301,-6.744352,-0.836234,-0.869161,-57.051712,1.458115,-623.061768
1733469413,-31.706861,11.267263,-13.310414,-6.53048,-0.29933,-1.189718,-58.012115,1.299911,-619.933655
1733469413,-31.330373,12.04882,-15.052645,-6.34712,0.223949,-1.631448,-59.23201,1.094101,-618.171387
1733469413,-31.302092,12.610559,-15.898846,-6.077867,0.352954,-2.247516,-60.158524,0.474182,-615.796875
1733469413,-30.581736,12.88275,-16.857724,-5.598718,0.272734,-2.839892,-61.267273,-0.411484,-613.939087
1733469413,-29.324332,13.550882,-18.011878,-5.038095,0.205148,-3.307988,-62.876984,-1.482773,-612.384338
1733469413,-27.76002,14.278271,-18.684948,-4.540562,0.202554,-3.650316,-64.410797,-3.051163,-610.305908
1733469413,-26.227731,14.727183,-19.503017,-4.09523,0.325558,-3.950284,-66.432831,-4.553864,-609.951477
1733469413,-24.601769,14.839711,-20.506636,-3.604764,0.598613,-4.218394,-68.078979,-6.486679,-608.336243
1733469413,-22.6894,15.111004,-21.429452,-2.994354,0.91033,-4.403867,-69.712326,-8.286789,-608.557922
1733469413,-20.726753,15.374665,-21.531205,-2.303553,1.112379,-4.529787,-71.353317,-10.279327,-609.015564
1733469413,-18.848951,15.531336,-20.968867,-1.634303,1.235914,-4.633018,-73.354202,-12.354202,-608.209473
1733469413,-17.180941,15.80203,-20.064158,-1.049512,1.316003,-4.732588,-74.881042,-14.452179,-609.189575
1733469413,-15.545252,15.86009,-19.054104,-0.555975,1.386378,-4.84569,-76.326385,-16.724335,-609.506592
1733469413,-13.942484,15.770606,-18.274343,-0.150985,1.527865,-4.950826,-77.645218,-18.964645,-611.302124
1733469413,-12.336723,15.925631,-17.578079,0.206112,1.706748,-4.990208,-77.645218,-18.964645,-611.302124
1733469413,-10.560225,16.136919,-17.191266,0.593431,1.941729,-4.958899,-80.02916,-23.692963,-612.56311
1733469413,-8.659678,16.142007,-16.923564,1.032794,2.172037,-4.852381,-81.155045,-26.081924,-614.658203
1733469413,-6.78846,16.188544,-16.254385,1.524925,2.322767,-4.668198,-81.811081,-28.4561,-615.258545
1733469413,-4.910807,16.170588,-15.004462,2.016099,2.391793,-4.398992,-82.308121,-30.618378,-617.207642
1733469413,-3.130119,16.092776,-13.686603,2.464833,2.4168,-4.064295,-83.163651,-32.761032,-618.517273
1733469413,-1.490391,15.715989,-12.28839,2.868399,2.410857,-3.667271,-83.384384,-34.721069,-620.375122
1733469413,-0.096067,15.039926,-11.054628,3.211078,2.443159,-3.242799,-83.494736,-36.627457,-621.529663
1733469413,0.900968,14.200908,-9.913192,3.474468,2.549559,-2.815521,-83.658585,-38.412903,-622.504028
1733469413,1.71769,13.212551,-8.929175,3.683477,2.72272,-2.391585,-83.494019,-39.586105,-624.378418
1733469413,2.302773,12.297966,-7.877073,3.850345,2.940523,-1.995618,-83.143723,-41.232681,-625.623352
1733469413,2.711583,11.487978,-6.873753,3.986674,3.165907,-1.633801,-83.210678,-42.593491,-627.13269
1733469413,3.05156,10.662427,-5.613954,4.121618,3.330307,-1.293391,-82.888351,-43.789993,-629.11615
1733469413,3.382558,10.104728,-3.920505,4.218138,3.369068,-0.975429,-82.353577,-44.935944,-630.431702
1733469413,3.591751,9.695619,-1.93661,4.235252,3.214284,-0.685294,-82.22467,-45.680695,-631.327271
1733469413,3.955072,9.174431,0.059256,4.166997,2.898636,-0.403053,-81.604111,-46.547165,-632.933838
1733469413,4.338742,8.746916,1.511041,4.012657,2.549504,-0.10683,-81.076843,-47.306412,-633.480042
1733469413,4.632182,8.29112,2.009483,3.813776,2.350117,0.224102,-80.436127,-47.784653,-634.831177
1733469413,4.675128,7.728932,1.870171,3.624297,2.357373,0.564329,-80.058884,-47.933899,-634.545837
1733469413,4.603302,7.106439,1.851017,3.447533,2.454891,0.911899,-79.724594,-48.225967,-635.370117
1733469413,4.650288,6.525846,2.078017,3.311581,2.536092,1.271649,-79.270004,-48.202774,-637.099304
1733469413,4.753089,6.139032,2.530671,3.242034,2.563745,1.656219,-78.899155,-48.017334,-637.512939
1733469413,4.763414,5.958719,3.272425,3.2027,2.519565,2.068326,-78.389801,-47.427826,-639.015259
1733469413,4.523245,5.873126,4.196886,3.162223,2.44908,2.50906,-77.906158,-47.079239,-638.896973
1733469413,4.044256,5.811176,5.324405,3.084512,2.333167,2.974629,-77.542313,-46.160004,-639.089233
1733469413,3.56347,5.87971,6.656928,2.971869,2.135914,3.491457,-77.066162,-45.251038,-640.762695
1733469413,2.908057,6.02007,8.010999,2.802346,1.931905,3.995447,-76.713287,-44.009033,-640.955811
1733469413,2.008286,5.858462,9.418939,2.523974,1.692211,4.454549,-76.263962,-42.419159,-642.612793
1733469413,1.00751,5.436933,10.630854,2.132477,1.459615,4.855507,-75.757553,-40.432632,-642.421936
1733469413,-0.200514,5.229535,11.374403,1.69669,1.289439,5.216354,-75.132599,-38.727295,-642.011597
1733469413,-1.361253,5.279514,11.566388,1.27923,1.262268,5.600416,-74.405777,-36.298264,-643.481934
1733469413,-2.609231,5.226093,11.403134,0.857148,1.415362,5.965014,-73.450714,-33.792923,-643.336243
1733469413,-4.268562,5.05835,11.888109,0.32907,1.603485,6.254762,-72.43428,-31.185883,-644.909912
1733469413,-5.906047,4.811747,12.949788,-0.358009,1.705411,6.454257,-70.76973,-28.019257,-645.311035
1733469413,-7.761852,4.357297,13.785963,-1.143949,1.701139,6.517082,-69.545166,-24.992279,-645.060974
1733469413,-9.548076,3.919907,14.216919,-1.925783,1.570237,6.469952,-67.636017,-21.91864,-645.575439
1733469413,-11.163414,3.925743,14.387805,-2.650838,1.352887,6.366456,-65.544327,-18.610168,-644.998047
1733469413,-12.877962,4.125958,14.177864,-3.320232,1.072442,6.203639,-65.544327,-18.610168,-644.998047
1733469413,-14.811429,4.688445,13.702914,-3.934907,0.770945,5.998579,-63.631775,-15.373199,-645.036194
1733469413,-16.792482,5.480028,12.593501,-4.466259,0.543769,5.784073,-61.443878,-11.984177,-643.032471
1733469413,-19.016396,6.351368,11.226262,-4.984831,0.452283,5.529635,-59.343506,-8.757507,-642.48291
1733469413,-22.074988,7.652617,10.501866,-5.631193,0.444905,5.107191,-57.226395,-6.01236,-640.554199
1733469413,-25.620202,8.901791,9.863213,-6.441222,0.53855,4.473444,-55.240524,-3.041611,-638.354004
1733469413,-28.71785,10.400711,8.314613,-7.354845,0.661845,3.676174,-53.16983,-0.242096,-635.496643
1733469414,-31.131505,12.423363,5.762394,-8.172065,0.683456,2.784993,-51.499756,1.982925,-631.956421
1733469414,-32.534357,14.14644,2.095824,-8.710139,0.529651,1.880637,-50.416168,4.12529,-629.008423
1733469414,-33.350481,15.86398,-2.136975,-8.915195,0.218598,1.024455,-49.90773,5.360657,-624.657227
1733469414,-34.199974,17.745075,-6.492027,-8.841343,-0.17677,0.194038,-49.573853,6.245285,-620.907349
1733469414,-34.72176,18.669985,-11.339987,-8.413684,-0.344466,-0.552074,-49.659821,6.523117,-616.649597
1733469414,-34.757972,18.609082,-16.508469,-7.635965,-0.103081,-1.223556,-50.147324,6.26857,-613.407104
1733469414,-33.890074,18.227955,-19.944298,-6.716865,0.332693,-1.772628,-50.876968,6.097992,-610.610474
1733469414,-32.077663,17.61878,-21.464766,-5.795568,0.753193,-2.177221,-52.40596,4.995483,-607.799561
1733469414,-30.248493,17.275362,-21.566969,-4.946259,1.092866,-2.479956,-53.7034,4.167664,-606.643921
1733469414,-28.714409,17.4247,-20.76551,-4.239211,1.32066,-2.742897,-55.210281,3.281036,-605.280457
1733469414,-27.545739,17.758093,-19.475035,-3.724808,1.4107,-3.015544,-57.181564,1.842712,-603.851562
1733469414,-26.545412,17.799992,-18.580651,-3.33128,1.45182,-3.337177,-58.559525,0.61409,-603.418518
1733469414,-25.616312,17.615339,-18.39914,-2.980257,1.543384,-3.732527,-60.485153,-0.850266,-602.516357
1733469414,-24.57663,17.766173,-18.528876,-2.619493,1.645819,-4.148838,-62.767746,-2.285614,-601.96228
1733469414,-23.060352,18.024149,-19.066973,-2.14858,1.769826,-4.487469,-64.665894,-3.970535,-601.949951
1733469414,-21.307497,17.840693,-19.964051,-1.552523,2.017441,-4.769334,-66.752243,-6.087555,-602.61908
1733469414,-19.458275,17.727417,-20.233099,-0.901037,2.28746,-4.981513,-68.944122,-8.107315,-603.593506
1733469414,-17.446099,18.141016,-19.562573,-0.228545,2.437449,-5.132679,-71.255081,-10.100174,-604.269897
1733469414,-15.52565,18.285566,-18.55222,0.471489,2.434144,-5.235419,-73.281418,-12.352951,-605.473633
1733469414,-13.982587,18.446576,-17.477971,1.168175,2.360582,-5.317288,-75.103439,-14.443329,-606.792969
1733469414,-12.520926,18.60998,-15.875802,1.757456,2.221641,-5.378801,-76.60936,-16.828171,-608.416931
1733469414,-11.087698,18.67582,-14.128334,2.219946,2.063773,-5.395407,-78.150375,-19.257523,-610.096069
1733469414,-9.701904,18.789246,-12.983307,2.600889,1.990079,-5.357066,-79.721191,-21.539078,-610.825684
1733469414,-8.290671,18.61387,-12.228684,2.925135,2.026179,-5.258943,-80.810028,-23.943939,-613.12439
1733469414,-6.906973,18.296489,-11.661558,3.21814,2.169629,-5.105526,-81.696808,-26.581528,-615.00415
1733469414,-5.450101,17.782484,-11.166257,3.495508,2.415212,-4.878571,-82.063019,-29.139496,-616.388611
1733469414,-3.806032,17.170466,-10.666168,3.745018,2.767004,-4.560434,-82.767792,-31.510605,-618.02832
1733469414,-2.140566,16.514006,-9.887754,3.966416,3.098393,-4.155133,-83.631592,-33.861771,-620.012939
1733469414,-0.701501,15.877896,-8.76607,4.178863,3.365623,-3.697798,-83.705627,-35.889908,-622.019165
1733469414,0.428412,15.103672,-7.646182,4.384658,3.564962,-3.23093,-83.699036,-38.097229,-623.528931
1733469414,1.364096,14.27453,-6.567744,4.574934,3.751685,-2.754225,-83.528564,-40.026657,-625.87439
1733469414,2.087744,13.50629,-5.537938,4.71664,3.943091,-2.288393,-83.488998,-41.612213,-627.917542
1733469414,2.477101,12.603975,-4.301483,4.812435,4.092986,-1.856667,-82.837555,-43.116394,-629.803772
1733469414,2.96058,11.793089,-2.664597,4.855849,4.093345,-1.451559,-82.542801,-44.589325,-631.424561
1733469414,3.52232,11.178976,-0.652869,4.852628,3.874222,-1.058653,-81.814026,-46.193863,-633.511475
1733469414,4.125509,10.484209,1.473033,4.776412,3.432428,-0.691456,-81.096725,-47.311157,-634.106506
1733469414,4.676774,9.519047,3.190573,4.622182,2.922146,-0.374785,-80.938904,-48.401382,-634.464722
1733469414,4.978892,8.569596,4.245967,4.378419,2.475337,-0.122762,-80.393036,-49.234528,-636.016479
1733469414,5.204097,7.648128,4.570531,4.083748,2.185067,0.116548,-80.014603,-49.799942,-636.437927
1733469414,5.4504,7.115567,4.585046,3.824331,2.04766,0.389468,-79.821106,-50.210846,-637.132751
1733469414,5.769876,6.714987,4.917541,3.60004,1.972696,0.701298,-79.150284,-50.868469,-637.82373
1733469414,6.13574,6.242432,5.662586,3.369965,1.866179,1.076052,-78.874832,-51.00412,-637.60437
1733469414,6.440402,6.086061,6.275053,3.142761,1.768014,1.533789,-78.666199,-50.770477,-638.317261
1733469414,6.423194,5.798308,6.650494,2.926091,1.701419,2.011381,-78.566406,-50.494095,-638.463501
1733469414,6.161777,5.348946,6.855198,2.720119,1.711166,2.509657,-78.221176,-49.820312,-639.104553
1733469414,5.757307,5.094412,7.214029,2.503872,1.760153,3.027536,-77.763443,-48.99144,-639.073242
1733469414,5.249138,5.133468,8.049306,2.249052,1.77197,3.572612,-77.41925,-47.796814,-639.940979
1733469414,4.461894,5.174169,9.065794,1.944426,1.728838,4.116936,-77.388184,-46.247452,-640.569763
1733469414,3.358017,4.999392,9.980978,1.56672,1.67679,4.615766,-76.814087,-44.388687,-641.420044
1733469414,2.097021,4.705354,10.729016,1.092867,1.641384,5.038545,-76.628357,-42.34407,-642.111328
1733469414,0.722899,4.39336,11.011532,0.561846,1.646407,5.392773,-76.01033,-39.946014,-643.195068
1733469414,-0.789189,4.033781,10.845135,0.032068,1.754592,5.666339,-75.268265,-37.363556,-644.032471
1733469414,-2.534861,3.441515,10.644471,-0.488989,1.902721,5.833558,-74.353455,-34.587769,-644.610229
1733469414,-4.378845,2.912397,11.01662,-1.045943,1.947454,5.871195,-73.266937,-31.771515,-645.098755
1733469414,-6.211307,2.578555,11.619809,-1.60903,1.882541,5.82269,-71.807907,-28.857437,-645.705261
1733469414,-8.007707,2.267159,11.82571,-2.151996,1.819054,5.71294,-70.175339,-26.038834,-645.352173
1733469414,-9.654768,2.11408,11.993304,-2.689829,1.694646,5.589308,-68.565094,-22.937241,-646.098511
1733469414,-11.157429,2.241122,12.477382,-3.741765,1.005718,5.343338,-66.726837,-19.801636,-646.04657
1733469414,-12.733262,2.589928,13.053038,-4.255615,0.523647,5.200917,-65.126678,-16.567123,-644.764099
1733469414,-14.699949,3.563171,13.272855,-4.255615,0.523647,5.200917,-63.532639,-13.621201,-644.217529
1733469414,-19.927539,5.196465,12.427104,-5.241738,-0.348331,4.626114,-61.717239,-10.637589,-642.447327
1733469414,-19.927539,5.196465,12.427104,-5.733008,-0.636955,4.252146,-59.97731,-7.702545,-640.5802
1733469414,-22.511481,6.28867,11.578359,-5.733008,-0.636955,4.252146,-58.300629,-4.928406,-638.02356
1733469414,-27.853843,9.293992,8.957756,-6.267286,-0.777225,3.807275,-56.753357,-2.415421,-635.109497
1733469414,-29.862877,10.572495,6.762872,-6.819894,-0.673764,3.307967,-55.60437,-0.081497,-632.460938
1733469414,-31.051748,11.943026,4.352509,-7.920956,-0.033364,2.204541,-54.166382,1.928497,-628.786743
1733469414,-32.105047,13.559561,1.618331,-7.920956,-0.033364,2.204541,-53.671844,3.183716,-626.07251
1733469414,-33.42096,14.804995,-1.212663,-8.389009,0.225654,0.917512,-53.099762,4.372528,-622.338257
1733469414,-33.42096,14.804995,-1.212663,-8.389009,0.225654,0.917512,-52.798157,5.207626,-618.58905
1733469414,-34.974049,17.640328,-6.636128,-8.196318,0.183515,-0.646281,-53.155029,5.135849,-615.076111
1733469414,-34.974049,17.640328,-6.636128,-8.196318,0.183515,-0.646281,-53.645233,4.91774,-611.645203
1733469414,-34.233343,19.624074,-12.891579,-7.376633,0.192717,-2.06487,-54.359131,4.066513,-608.125916
1733469414,-33.257257,20.127156,-15.986533,-6.68122,0.320205,-2.620842,-55.473343,2.917282,-606.036133
1733469414,-32.002845,20.556765,-18.507328,-5.89709,0.509524,-3.066065,-57.000275,1.711578,-603.417786
1733469414,-30.370747,21.287296,-20.219332,-5.133117,0.725784,-3.422714,-58.550781,-0.006668,-601.361633
1733469414,-28.509405,22.093244,-21.340866,-4.433702,0.930493,-3.692837,-60.224854,-1.695648,-599.278198
1733469414,-26.443508,22.181829,-22.395811,-4.433702,0.930493,-3.692837,-62.01503,-3.442535,-598.865417
1733469414,-24.611645,22.145916,-23.561787,-2.94347,1.508533,-4.057761,-63.553329,-5.295197,-598.609131
1733469414,-22.769007,21.805641,-24.261343,-2.081132,1.826444,-4.151648,-65.784027,-6.987152,-598.696655
1733469414,-20.978145,21.284902,-24.274661,-1.177829,2.107909,-4.217353,-67.768112,-8.689667,-599.27063
1733469414,-19.329138,20.7281,-23.547273,-0.311929,2.300234,-4.297986,-69.853989,-10.482498,-599.773682
1733469414,-17.770812,20.26991,-22.087259,0.463718,2.374876,-4.413738,-72.195099,-12.227051,-600.722717
1733469414,-16.190789,19.775657,-20.337696,1.132324,2.413313,-4.530732,-73.587006,-14.146423,-602.058594
1733469414,-14.685584,19.244743,-18.510022,1.669465,2.459217,-4.659572,-75.183929,-15.913483,-604.312561
1733469414,-13.354857,19.005771,-16.63641,2.103086,2.492191,-4.792896,-77.086075,-17.905411,-605.864197
1733469414,-12.082339,18.992154,-14.877719,2.462276,2.503009,-4.910532,-78.533066,-20.011612,-606.57605
1733469414,-10.738443,18.930204,-13.311163,2.782987,2.458091,-4.994789,-79.62973,-22.076981,-608.894287
1733469414,-9.324368,18.747646,-11.910555,3.110128,2.350059,-5.041376,-80.975632,-24.67511,-610.648804
1733469414,-7.805546,18.516307,-10.621876,3.43785,2.206646,-5.016896,-81.859833,-27.222153,-613.319153
1733469414,-6.13604,18.183363,-9.569325,3.711513,2.137961,-4.897645,-82.647293,-29.403412,-613.978149
1733469414,-4.517859,17.673548,-8.860791,3.914295,2.244287,-4.683435,-83.24527,-31.692673,-615.319946
1733469414,-2.984223,16.988956,-8.32838,4.042628,2.53864,-4.383515,-83.845352,-34.344391,-616.548645
1733469414,-1.562516,16.332496,-7.675511,4.136754,2.889817,-4.015352,-84.189941,-36.516205,-618.305237
1733469414,-0.27234,15.439758,-6.641066,4.252083,3.144785,-3.628846,-84.357498,-38.678543,-620.434021
1733469414,0.98686,14.320468,-5.504569,4.418207,3.274509,-3.243103,-84.492676,-40.815979,-621.951843
1733469414,2.114828,13.421296,-3.942053,4.585044,3.208147,-2.86305,-84.50444,-42.692886,-622.972412
1733469414,3.128922,12.513744,-2.315043,4.690477,3.039087,-2.487062,-84.350906,-44.260864,-625.111267
1733469414,4.061165,11.627141,-1.161936,4.684889,2.989141,-2.089962,-83.958313,-45.958298,-626.40625
1733469414,4.759972,10.903494,-0.251092,4.576484,3.031796,-1.662814,-83.239395,-47.43219,-627.462952
1733469414,5.304204,10.422109,1.115249,4.377099,3.071448,-1.205849,-83.143448,-48.389297,-628.190552
1733469415,5.826739,10.003872,2.356194,4.086809,3.052644,-0.716132,-82.681717,-49.459595,-629.723511
1733469415,6.230311,9.568726,3.198653,3.800975,2.922305,-0.226971,-82.399582,-50.184067,-630.244873
1733469415,6.335507,8.919299,3.236362,3.633756,2.801538,0.224838,-81.973862,-50.736542,-631.357544
1733469415,6.21849,8.220192,3.066374,3.563961,2.714923,0.625816,-81.643188,-50.906677,-632.089111
1733469415,6.022016,7.326407,3.532794,3.476208,2.593216,0.9631,-81.319672,-51.140045,-633.053467
1733469415,5.872827,6.844424,4.198831,3.362934,2.47893,1.298651,-81.071701,-51.108505,-632.943848
1733469415,5.766584,6.715287,4.622904,3.267015,2.39463,1.66268,-80.621292,-50.668762,-634.216431
1733469415,5.615001,6.534674,5.175366,3.171354,2.31934,2.052795,-80.553192,-50.377335,-634.914307
1733469415,5.57849,6.531232,5.977124,3.061579,2.241626,2.523369,-79.619278,-49.798553,-635.812378
1733469415,5.557391,6.677877,7.004985,2.930769,2.139158,3.070507,-79.535568,-48.789398,-636.58844
1733469415,5.244499,6.677578,8.334964,2.735236,2.034679,3.687742,-79.20726,-47.631485,-637.036499
1733469415,4.377498,6.431275,9.794679,2.39657,1.933404,4.291693,-79.082642,-45.717285,-637.544312
1733469415,2.951452,5.852327,10.835857,1.939958,1.868421,4.839861,-78.535294,-44.095169,-638.636292
1733469415,1.264587,5.115361,11.220576,1.477116,1.883276,5.315485,-77.898911,-41.840057,-639.114258
1733469415,-0.712275,4.341137,11.188853,1.05808,1.981911,5.701099,-77.249878,-39.459946,-640.076538
1733469415,-3.063231,3.358466,11.322778,0.612433,2.098125,5.926533,-76.57428,-36.864258,-640.854126
1733469415,-5.685331,2.354548,11.761216,0.18743,2.215004,6.02203,-75.519577,-34.294342,-642.202271
1733469415,-8.153005,1.569549,12.865841,-0.320442,2.231418,5.97215,-74.154297,-31.748001,-643.174133
1733469415,-10.207828,1.23466,14.423419,-0.951732,1.985794,5.82481,-72.859009,-28.937164,-643.656555
1733469415,-12.019491,1.397166,15.379903,-1.583855,1.599174,5.61961,-71.317123,-26.079483,-644.031067
1733469415,-13.795989,1.481263,15.45532,-2.155495,1.151193,5.349678,-70.012772,-23.257217,-643.827209
1733469415,-15.357756,1.617134,15.159935,-2.686334,0.633567,5.053164,-68.517563,-20.781265,-644.206177
1733469415,-16.265757,1.8992,14.780005,-3.160199,0.038838,4.830907,-67.24852,-17.868515,-643.024292
1733469415,-17.120188,2.483685,13.612234,-3.518899,-0.392491,4.690095,-65.950134,-15.132126,-641.922852
1733469415,-18.471565,3.29921,12.363807,-3.875307,-0.59776,4.589907,-64.450089,-12.185104,-640.48175
1733469415,-20.494815,4.182521,11.827805,-4.38798,-0.563998,4.421235,-62.811905,-9.674622,-639.137756
1733469415,-22.933609,5.167884,11.141268,-5.042982,-0.285193,4.154724,-61.486389,-6.916473,-637.404785
1733469415,-25.251196,6.177938,10.163087,-5.807815,0.062938,3.758512,-60.198776,-4.649628,-635.084961
1733469415,-27.143962,6.991518,8.88593,-6.514559,0.245199,3.2572,-58.633133,-2.493118,-632.970764
1733469415,-28.651112,8.131008,6.904728,-7.05723,0.218754,2.698748,-57.786789,-0.440399,-630.00238
1733469415,-30.356681,9.767445,4.758177,-7.481697,-0.10044,2.048095,-56.814377,1.012909,-626.907532
1733469415,-32.285959,11.736676,1.990629,-7.762838,-0.510783,1.307915,-56.344803,2.240463,-623.550293
1733469415,-33.831117,13.426683,-1.879598,-7.836746,-0.758966,0.560292,-55.974213,2.900543,-619.415405
1733469415,-34.850598,14.718355,-6.053889,-7.725601,-0.863283,-0.188779,-56.367569,3.01535,-616.333313
1733469415,-35.687072,15.266926,-10.043526,-7.413202,-0.837371,-0.968855,-56.845505,2.689621,-613.302185
1733469415,-35.677495,15.083022,-14.048278,-6.879267,-0.613882,-1.712041,-57.501389,2.163193,-610.345825
1733469415,-34.268358,14.845846,-17.320104,-6.214894,-0.325039,-2.27668,-58.510208,0.931473,-607.6875
1733469415,-32.176873,15.297752,-19.383756,-5.547019,0.016518,-2.641421,-59.846603,-0.145172,-605.596069
1733469415,-30.26226,16.137518,-20.361039,-4.993408,0.38026,-2.873573,-61.203476,-1.531235,-604.025391
1733469415,-28.857911,16.762704,-20.735582,-4.548641,0.749047,-3.045397,-62.409378,-2.978638,-603.142151
1733469415,-27.882873,17.455975,-21.520731,-4.087,1.112191,-3.193669,-62.409378,-2.978638,-603.142151
1733469415,-26.844388,17.538126,-22.534076,-3.476848,1.386867,-3.354041,-64.034698,-4.546814,-602.478455
1733469415,-25.8068,16.859818,-23.664588,-2.670855,1.648014,-3.584734,-65.984726,-6.253891,-601.979553
1733469415,-24.733151,15.887773,-24.248923,-1.778981,1.91403,-3.893148,-67.513321,-7.929916,-601.868408
1733469415,-23.583485,15.530588,-23.646333,-0.948474,2.134145,-4.259012,-69.493027,-9.857178,-602.436951
1733469415,-21.930887,15.552285,-22.103868,-0.225696,2.218484,-4.626676,-71.700409,-11.69635,-602.581177
1733469415,-19.9229,15.618724,-20.196438,0.403558,2.176833,-4.951413,-73.199203,-13.605713,-604.346924
1733469415,-17.960253,16.038907,-18.332103,0.949583,2.094118,-5.214088,-75.209152,-15.826691,-605.815674
1733469415,-16.106094,16.390854,-16.683695,1.384885,2.040694,-5.411359,-76.798523,-18.070023,-606.680298
1733469415,-14.250737,16.54932,-15.139734,1.742443,2.000026,-5.531699,-78.305664,-20.629013,-608.075195
1733469415,-12.533795,16.748189,-13.835493,2.076823,2.035612,-5.549848,-79.663406,-23.008865,-609.332214
1733469415,-10.836007,16.995091,-12.930036,2.391383,2.146567,-5.490434,-80.560287,-25.814255,-610.577637
1733469415,-9.087941,16.979977,-11.814338,2.690396,2.232175,-5.376794,-81.834763,-28.757416,-612.899475
1733469415,-7.310994,16.745944,-10.746524,2.977954,2.305553,-5.20599,-82.469391,-31.335587,-614.068604
1733469415,-5.394436,16.434848,-10.118794,3.250175,2.473903,-4.929756,-83.236801,-33.690231,-614.963318
1733469415,-3.459621,15.801132,-9.550022,3.50814,2.697613,-4.584281,-83.707657,-36.329285,-616.297241
1733469415,-1.788618,15.074343,-8.514978,3.749235,2.886383,-4.198614,-83.846481,-38.889694,-618.083618
1733469415,-0.274585,14.264354,-7.410353,3.960462,3.052375,-3.801764,-84.144867,-40.956436,-620.05481
1733469415,1.062427,13.463793,-6.190957,4.13141,3.180868,-3.381408,-84.156418,-43.081406,-621.492065
1733469415,2.307262,12.682984,-5.009119,4.247805,3.312251,-2.937117,-84.075378,-44.962921,-622.554688
1733469415,3.278111,11.952004,-3.789123,4.305717,3.426064,-2.485977,-83.779984,-46.764954,-624.512878
1733469415,4.132841,11.321431,-2.578705,4.295321,3.485346,-2.026009,-83.564117,-48.334106,-626.16095
1733469415,4.890606,10.787524,-1.252317,4.262091,3.450512,-1.554682,-83.111252,-49.771118,-627.073364
1733469415,5.566818,10.106673,0.238522,4.158248,3.297289,-1.098276,-82.329498,-50.989746,-628.299683
1733469415,6.059425,9.445425,1.60202,3.990448,3.054366,-0.647685,-82.035049,-51.8414,-628.770386
1733469415,6.21415,8.817396,2.521094,3.809898,2.801493,-0.229895,-81.577591,-52.651413,-629.318848
1733469415,6.328623,8.038083,3.204938,3.613865,2.552835,0.161795,-81.386459,-53.111191,-630.854797
1733469415,6.631939,7.312341,3.340211,3.45496,2.417606,0.586488,-80.941925,-53.390167,-631.360962
1733469415,6.645256,6.99466,3.045574,3.375438,2.437244,1.057775,-80.608353,-53.528687,-632.150513
1733469415,6.240936,6.729802,2.9317,3.36257,2.607993,1.548705,-80.327179,-53.429611,-632.818848
1733469415,5.5535,6.41242,3.611803,3.328931,2.80939,2.00048,-80.079468,-53.106857,-633.586243
1733469415,4.851101,5.851878,5.296273,3.174403,2.883391,2.390927,-79.848267,-52.780624,-634.397888
1733469415,4.231452,5.354333,7.040599,2.911119,2.792998,2.724581,-79.545746,-52.060074,-635.633362
1733469415,3.7161,5.032462,8.407239,2.620644,2.582269,3.050438,-79.418518,-51.077225,-636.137634
1733469415,3.301305,4.717774,9.254338,2.349642,2.357551,3.428698,-78.868149,-50.029663,-636.848938
1733469415,2.629432,4.248361,9.877578,2.078889,2.20168,3.81205,-78.558273,-48.864639,-637.002136
1733469415,1.738789,3.952228,10.727819,1.74268,2.093858,4.228629,-78.086472,-47.140808,-638.091003
1733469415,0.613963,3.694104,11.834688,1.275517,1.949806,4.604765,-77.852859,-45.25264,-638.932983
1733469415,-0.743699,3.297115,12.690915,0.704434,1.824998,4.916499,-77.405243,-43.406311,-640.153931
1733469415,-2.137573,2.940229,12.65156,0.118142,1.842024,5.169029,-76.785034,-41.024155,-641.125549
1733469415,-3.797503,2.265962,12.381315,-0.490736,1.943306,5.28966,-76.297668,-38.598312,-641.438293
1733469415,-5.571607,1.679832,12.565967,-1.125623,1.986164,5.297685,-75.491379,-35.911972,-642.551758
1733469415,-7.179612,1.618031,13.108703,-1.748846,1.878118,5.232798,-74.518158,-33.111572,-643.359436
1733469415,-8.552687,1.917756,13.397803,-2.308615,1.597203,5.134254,-73.368942,-30.136154,-643.685791
1733469415,-9.745897,2.25459,13.176339,-2.734766,1.238588,5.083762,-72.024551,-27.295334,-643.841248
1733469415,-10.75655,2.228852,12.693758,-3.079214,0.908965,5.083751,-70.599625,-24.513626,-643.033386
1733469415,-12.406903,2.244564,12.646772,-3.437788,0.589306,5.060092,-69.043121,-21.489044,-643.821106
1733469415,-14.67062,2.798223,12.955624,-3.884436,0.307555,4.986864,-67.620743,-18.395966,-642.679993
1733469415,-17.158046,3.654898,13.213898,-4.440393,0.080566,4.850502,-66.365845,-15.167618,-641.714844
1733469415,-19.728072,4.492869,13.075932,-5.085896,-0.08123,4.629053,-64.648743,-12.209915,-640.673401
1733469415,-22.282386,5.540183,12.489802,-5.822148,-0.237039,4.289745,-63.351303,-9.362671,-638.7146
1733469415,-24.822185,6.33012,11.186309,-6.540979,-0.404371,3.847864,-61.935669,-6.605743,-636.277771
1733469415,-27.300932,7.0813,8.792706,-7.132827,-0.515788,3.275826,-60.74292,-4.042664,-633.906982
1733469415,-29.859585,8.10557,5.925799,-7.539075,-0.655765,2.57251,-59.555054,-1.956451,-630.396301
1733469415,-31.555279,9.248352,2.685097,-7.726345,-0.719612,1.888086,-58.57547,-0.26387,-627.656189
1733469415,-32.230892,10.407595,-0.674716,-7.729875,-0.664197,1.26057,-58.113785,0.747818,-623.311707
1733469415,-32.651823,11.559056,-3.752313,-7.596013,-0.476893,0.693687,-57.757812,1.679489,-620.960449
1733469415,-32.967858,13.026402,-6.453571,-7.411596,-0.175792,0.140812,-57.695557,2.053528,-617.647827
1733469415,-32.758963,14.019547,-8.371326,-7.237303,0.024065,-0.41929,-58.035217,2.138229,-615.031738
1733469415,-32.356588,14.779257,-9.433005,-7.056362,-0.072767,-1.011573,-58.684235,1.769012,-611.692688
1733469416,-32.202312,15.964986,-10.73994,-6.813005,-0.347796,-1.611192,-59.365158,0.853745,-609.256714
1733469416,-31.804276,17.170616,-12.890382,-6.448282,-0.622952,-2.163354,-60.000504,-0.215149,-606.397217
1733469416,-31.445145,18.009335,-15.506795,-5.965958,-0.793052,-2.680605,-61.07016,-1.58992,-604.099976
1733469416,-31.560815,18.50254,-18.222867,-5.392318,-0.792056,-3.210127,-62.115463,-3.180893,-601.609314
1733469416,-31.127165,18.502241,-21.247343,-4.693098,-0.48335,-3.660008,-63.578949,-4.909103,-600.481689
1733469416,-29.881881,18.43236,-24.11799,-3.871392,0.115124,-3.99554,-65.134094,-6.988449,-598.345581
1733469416,-27.842919,18.255788,-25.63756,-2.98719,0.754511,-4.202906,-66.699997,-8.65065,-598.623169
1733469416,-25.502886,18.30038,-25.367165,-2.117767,1.233256,-4.331606,-68.445587,-10.766586,-598.452271
1733469416,-23.283611,18.654572,-24.03165,-1.341474,1.520724,-4.410341,-70.584473,-12.728516,-598.765259
1733469416,-21.317672,18.724752,-22.547394,-0.690061,1.711963,-4.470255,-72.470093,-14.698517,-599.611694
1733469416,-19.692608,18.281675,-21.508909,-0.131384,1.96437,-4.551089,-73.955719,-16.775223,-600.206238
1733469416,-18.223017,17.63539,-20.892702,0.392057,2.286226,-4.663111,-75.501297,-18.828949,-601.396484
1733469416,-16.581792,17.21431,-20.090794,0.946575,2.598903,-4.747348,-77.241943,-20.906845,-603.34729
1733469416,-14.574553,17.291224,-18.86182,1.554575,2.761993,-4.775698,-78.808609,-23.213425,-605.171387
1733469416,-12.617443,17.291224,-17.117644,2.186232,2.750192,-4.765296,-79.956406,-25.3927,-607.060486
1733469416,-10.978312,17.159094,-15.418359,2.778891,2.683231,-4.74763,-81.206802,-27.870667,-608.253052
1733469416,-9.318532,16.896929,-13.495965,3.278121,2.547313,-4.699489,-82.153915,-30.015671,-610.340454
1733469416,-7.72983,16.607829,-11.459098,3.660139,2.356497,-4.627776,-83.174026,-32.122803,-611.456665
1733469416,-6.13604,16.081853,-9.44348,3.959524,2.089704,-4.518574,-83.299316,-34.397934,-612.958801
1733469416,-4.416255,15.467441,-7.648427,4.155105,1.870318,-4.320911,-83.703384,-36.601334,-614.338196
1733469416,-3.104232,14.761001,-6.426337,4.220899,1.822625,-4.087939,-84.019562,-38.503387,-615.312805
1733469416,-2.087893,13.703064,-5.649418,4.14685,2.058071,-3.821,-84.437881,-40.395386,-616.445557
1733469416,-1.237353,12.69271,-5.138555,3.982426,2.547779,-3.517579,-84.356628,-42.27037,-617.259766
1733469416,-0.59032,11.70585,-4.763115,3.797224,3.211701,-3.206929,-83.900101,-44.203522,-619.211182
1733469416,0.110881,10.798747,-4.342633,3.671885,3.829794,-2.85866,-83.874466,-45.906143,-621.078125
1733469416,1.052551,10.474034,-3.439121,3.660368,4.264281,-2.468165,-83.867233,-47.53688,-622.395081
1733469416,2.160168,10.548553,-2.038513,3.748818,4.380148,-2.012953,-83.348465,-48.643127,-624.369568
1733469416,3.39827,10.356119,-0.300772,3.880676,4.156666,-1.508605,-83.137375,-49.887589,-626.580444
1733469416,4.342483,9.914688,1.4039,4.009132,3.75955,-0.993723,-82.66748,-51.008881,-627.857788
1733469416,4.944775,9.277083,2.642301,4.05005,3.364062,-0.544472,-82.552338,-51.374222,-628.910217
1733469416,5.167585,8.29531,3.424756,4.019935,3.069816,-0.143263,-81.883743,-52.004181,-630.084412
1733469416,5.386804,7.597999,3.79466,3.962484,2.915576,0.251814,-81.553558,-52.382965,-630.984985
1733469416,5.528661,7.144597,4.192397,3.869301,2.897072,0.666142,-81.247604,-52.627213,-631.533203
1733469416,5.506514,6.839187,4.843021,3.699605,2.963219,1.074083,-80.924408,-52.338943,-632.359924
1733469416,5.312135,6.588244,6.222081,3.417148,2.94239,1.488134,-80.609482,-52.082367,-633.243408
1733469416,5.111172,6.406884,7.586477,3.047015,2.809308,1.905029,-80.151611,-51.763046,-633.110474
1733469416,4.941034,6.18557,8.099135,2.730162,2.614671,2.356294,-79.825729,-50.806915,-635.045654
1733469416,4.816685,5.882105,8.173655,2.551013,2.424051,2.86307,-79.581375,-49.804916,-635.918762
1733469416,4.524592,5.259163,8.409184,2.400736,2.268795,3.351682,-79.412659,-48.798767,-636.444458
1733469416,3.920206,4.485686,9.219921,2.176788,2.111693,3.805945,-79.097488,-47.297211,-637.099609
1733469416,3.067571,3.994576,10.213664,1.843385,1.951302,4.224279,-78.845734,-45.465485,-638.307983
1733469416,1.955614,3.586065,10.986991,1.408104,1.855509,4.574348,-78.566086,-43.377029,-638.730164
1733469416,0.718859,3.126827,11.492168,0.905503,1.801892,4.884859,-77.796829,-41.371338,-639.916992
1733469416,-0.584933,2.941277,11.85863,0.385427,1.834713,5.187677,-77.185211,-38.868179,-640.276489
1733469416,-2.089839,2.597559,12.125734,-0.206634,1.946289,5.411471,-76.374374,-36.366135,-641.462891
1733469416,-3.713107,2.03986,12.771121,-0.899091,1.967737,5.54175,-75.382446,-33.536804,-641.662231
1733469416,-5.139453,1.84982,13.310265,-1.57062,1.816944,5.625515,-74.196838,-30.475937,-642.68927
1733469416,-6.306327,1.861641,13.329269,-2.097444,1.461743,5.707901,-73.010147,-27.357071,-643.173706
1733469416,-7.648277,1.822885,12.814964,-2.462966,1.078188,5.758518,-71.490417,-24.322769,-643.016296
1733469416,-9.323021,2.071134,12.14803,-2.747848,0.744215,5.793945,-70.167618,-21.078995,-642.652832
1733469416,-11.236288,2.567931,11.952004,-3.053559,0.501897,5.799107,-68.644836,-17.822296,-641.980164
1733469416,-13.610737,2.954894,12.044181,-3.448913,0.369818,5.716135,-66.631622,-14.776154,-640.881897
1733469416,-15.991322,3.202544,12.356924,-3.965371,0.284737,5.558952,-64.767502,-11.762711,-639.923462
1733469416,-18.406323,3.762787,12.677148,-4.577126,0.197172,5.313229,-62.929016,-8.898834,-638.723755
1733469416,-21.25243,4.495563,12.384307,-5.201309,0.160086,4.958461,-61.260117,-6.099564,-636.721985
1733469416,-24.278851,5.316175,11.580155,-5.837086,0.113029,4.434651,-59.691193,-3.328613,-633.49408
1733469416,-27.348068,6.171504,10.662876,-6.502186,-0.032186,3.695943,-58.13591,-1.222549,-631.613708
1733469416,-30.068779,7.460332,9.053524,-7.069487,-0.295189,2.86481,-57.220474,0.704865,-628.638184
1733469416,-31.920694,8.823531,6.308572,-7.415315,-0.632769,2.036836,-56.467758,2.007462,-625.073486
1733469416,-33.213114,10.155156,3.017742,-7.52914,-0.945611,1.241359,-56.155853,2.865646,-621.52417
1733469416,-34.301428,11.658864,-0.41704,-7.407023,-1.100192,0.510042,-56.147552,3.549744,-617.942261
1733469416,-35.01909,13.132645,-3.751714,-7.17342,-1.0206,-0.144634,-56.213699,3.535614,-614.888611
1733469416,-34.765005,14.123695,-6.58196,-6.941459,-0.717825,-0.681636,-56.709045,3.107498,-611.801758
1733469416,-33.732506,15.598673,-8.81156,-6.757183,-0.274925,-1.077552,-57.231369,2.429123,-609.039124
1733469416,-32.484229,16.768689,-10.524013,-6.553514,0.111492,-1.420086,-57.995529,1.678574,-607.093872
1733469416,-31.706562,17.542914,-12.09416,-6.240324,0.360602,-1.7713,-59.170898,0.574707,-604.51709
1733469416,-31.079581,18.340632,-13.944878,-5.743713,0.473547,-2.112045,-60.370468,-0.816345,-603.19519
1733469416,-30.252833,18.331953,-16.030078,-5.05325,0.550178,-2.471469,-61.835114,-2.294434,-601.892517
1733469416,-29.213001,17.513136,-18.012627,-4.258261,0.715661,-2.835488,-63.302261,-3.875732,-601.059143
1733469416,-27.764509,16.871939,-19.152865,-3.501486,0.938727,-3.166856,-65.211029,-5.525879,-600.436401
1733469416,-25.916784,16.328904,-19.313726,-2.830358,1.164959,-3.459345,-66.545547,-6.986084,-599.977417
1733469416,-24.061876,16.160562,-18.887558,-2.266034,1.365952,-3.70206,-68.339401,-8.783035,-600.208313
1733469416,-22.405238,16.292842,-18.087745,-1.818817,1.522288,-3.920256,-70.100616,-10.423309,-600.306396
1733469416,-20.841376,16.344167,-17.363648,-1.443642,1.648015,-4.11488,-71.464203,-12.520218,-600.996399
1733469416,-19.384205,16.377088,-16.946758,-1.073085,1.787839,-4.267993,-73.44313,-14.21106,-601.449463
1733469416,-17.995718,16.260669,-16.884808,-0.692131,2.012338,-4.382652,-74.92691,-16.171021,-602.632385
1733469416,-16.583587,15.969475,-17.045369,-0.2572,2.316651,-4.47411,-76.626999,-18.38562,-603.699951
1733469416,-15.079131,15.518317,-16.968605,0.227687,2.645274,-4.548141,-78.062637,-20.628235,-605.295654
1733469416,-13.571382,15.352369,-16.373496,0.745008,2.903218,-4.600293,-79.576141,-22.572968,-607.317627
1733469416,-12.154464,15.652692,-15.166968,1.252329,3.019086,-4.632146,-80.629166,-24.913177,-608.811279
1733469416,-10.697143,15.872958,-13.800777,1.723277,3.006778,-4.644309,-81.628311,-27.005661,-610.119995
1733469416,-9.245659,15.923536,-12.505663,2.150157,2.91312,-4.624319,-82.601608,-29.443939,-612.315613
1733469416,-7.863456,15.816994,-11.476456,2.543095,2.790959,-4.575666,-83.219177,-31.628998,-613.798645
1733469416,-6.490531,15.501109,-10.520122,2.919578,2.602123,-4.476449,-83.648773,-33.865875,-615.73645
1733469416,-5.164443,15.108011,-9.64983,3.291917,2.452146,-4.317403,-84.01561,-35.991974,-617.069153
1733469416,-3.920056,14.604331,-9.149142,3.615143,2.426175,-4.110547,-84.01561,-35.991974,-617.069153
1733469416,-2.756474,14.018051,-8.437017,3.861439,2.472957,-3.867383,-84.143433,-38.184479,-618.588013
1733469416,-1.655291,13.367426,-7.604134,4.048481,2.571083,-3.592748,-84.24971,-40.317078,-619.543762
1733469416,-0.60693,12.596793,-6.897396,4.201284,2.734172,-3.295819,-84.063721,-42.259888,-620.976135
1733469416,0.39235,11.784859,-6.349124,4.338973,2.979551,-2.964316,-83.967743,-44.112015,-622.419556
1733469416,1.324742,11.164162,-5.453243,4.459866,3.204031,-2.614599,-84.134598,-45.823257,-623.862366
1733469416,2.132485,10.5291,-4.299986,4.544539,3.373651,-2.266928,-83.700775,-47.538757,-625.380737
1733469416,2.808548,10.038888,-2.914941,4.599118,3.456396,-1.914896,-83.238113,-49.145676,-626.582886
1733469416,3.523517,9.704148,-1.04896,4.583323,3.357512,-1.553437,-82.968582,-50.243988,-627.442383
1733469416,4.28607,9.290251,0.993743,4.455868,3.070182,-1.182526,-82.486557,-51.377563,-628.75708
1733469416,5.002385,8.706664,2.392705,4.233212,2.739939,-0.801639,-81.902893,-52.309433,-628.684509
1733469416,5.622783,8.144176,2.88232,3.998472,2.534884,-0.378232,-81.569336,-53.053543,-630.073914
1733469416,6.205471,7.750629,2.76231,3.797406,2.530061,0.078945,-81.042908,-53.56662,-630.677063
1733469416,6.585252,7.358728,2.845808,3.594871,2.627114,0.565137,-80.848007,-53.785614,-631.281616
1733469416,6.915801,6.880187,3.134459,3.397218,2.81318,1.076432,-80.480988,-53.769272,-632.257019
1733469417,7.116316,6.386832,3.719542,3.188374,2.990482,1.593953,-80.190231,-53.457397,-633.547852
1733469417,7.082049,6.170007,4.822371,2.961095,3.051878,2.122842,-79.940369,-53.059875,-634.325195
1733469417,6.884527,6.008997,6.128258,2.476141,2.701294,3.167176,-79.796814,-52.240692,-635.293762
1733469417,5.972336,5.643882,8.670302,2.220895,2.376815,3.679072,-79.36554,-51.162247,-636.11261
1733469417,4.975899,5.44202,9.740809,1.93714,2.037104,4.173924,-79.057251,-49.704178,-636.867249
1733469417,3.778798,5.329942,10.47134,1.604331,1.791712,4.660677,-78.848541,-48.28627,-636.87561
1733469417,2.198476,5.135263,10.802638,1.190629,1.701724,5.079214,-78.506531,-46.443817,-638.431885
1733469417,0.195726,4.65777,10.857705,0.698455,1.74889,5.382045,-78.294464,-44.126755,-638.851624
1733469417,-1.917007,3.892224,10.602872,0.180449,1.909394,5.537121,-78.109726,-41.714386,-639.33606
1733469417,-3.723732,3.219303,10.652402,-0.321659,1.99325,5.577283,-77.42189,-39.195343,-640.249268
1733469417,-5.146486,2.905813,11.430966,-0.790342,1.794459,5.559267,-76.498688,-36.683319,-640.924988
1733469417,-6.348824,2.719963,12.31308,-1.212476,1.400556,5.523457,-75.515091,-33.795395,-642.014648
1733469417,-7.909844,2.396596,12.693309,-1.636012,0.998489,5.453094,-74.415222,-31.17482,-642.309692
1733469417,-9.886257,2.381333,12.775909,-2.072588,0.695438,5.337972,-73.446106,-28.109558,-642.371948
1733469417,-11.750442,2.66729,12.540978,-2.532393,0.541414,5.19321,-72.258942,-25.498749,-642.603882
1733469417,-13.30817,3.008913,12.666374,-3.049237,0.412065,5.026198,-71.023712,-22.58696,-641.609009
1733469417,-14.742446,3.938911,13.098528,-3.58988,0.211167,4.892476,-69.655838,-19.611542,-641.539062
1733469417,-15.965434,4.920084,13.313856,-4.119434,-0.106787,4.817868,-68.256866,-16.655914,-640.748352
1733469417,-17.3424,5.58657,12.809877,-4.602219,-0.346002,4.776954,-66.984085,-13.499847,-639.34613
1733469417,-19.385701,6.667702,11.844116,-5.116917,-0.435655,4.676336,-65.281586,-10.672897,-638.01709
1733469417,-21.705683,7.849839,10.84289,-5.67759,-0.442144,4.483004,-63.761734,-7.876144,-636.13147
1733469417,-23.593511,8.461109,9.39769,-6.170411,-0.397668,4.244516,-61.858109,-5.171829,-633.813477
1733469417,-23.593511,8.461109,9.39769,-6.170411,-0.397668,4.244516,-60.596848,-2.843277,-631.729858
1733469417,-28.225992,9.854235,6.455815,-6.932174,-0.487178,3.435812,-59.159256,-0.349854,-629.014832
1733469417,-31.137341,10.240001,4.977695,-7.222913,-0.715556,2.768799,-57.496887,1.277451,-625.80304
1733469417,-33.675344,10.534338,2.614019,-7.391361,-0.853015,1.972788,-56.431625,2.709503,-622.068115
1733469417,-35.490149,11.101763,-0.411653,-7.43722,-0.851659,1.142656,-55.680115,3.576279,-619.421265
1733469417,-36.490476,12.255918,-3.161693,-7.396062,-0.735843,0.323032,-55.353485,4.01062,-615.87854
1733469417,-36.545992,13.4403,-5.873725,-7.260368,-0.569771,-0.416059,-55.040558,3.86821,-612.250671
1733469417,-36.047549,14.72434,-8.709956,-6.989631,-0.338777,-1.07128,-55.629059,3.51059,-608.96405
1733469417,-35.344552,15.874904,-11.539902,-6.550154,-0.070504,-1.661862,-56.18425,2.423615,-606.469055
1733469417,-34.194138,16.705093,-14.06803,-5.921089,0.198497,-2.164378,-56.854019,1.393463,-603.96875
1733469417,-32.37634,17.271023,-15.964387,-5.193588,0.412781,-2.535572,-57.998306,-0.072845,-602.303711
1733469417,-30.459482,17.84608,-17.051504,-4.503638,0.632806,-2.81604,-59.354568,-1.326752,-600.750122
1733469417,-28.763789,18.260576,-17.596484,-3.939295,0.892211,-3.048542,-60.78334,-2.865265,-599.133301
1733469417,-27.100567,18.25489,-18.026543,-3.446952,1.22602,-3.21916,-61.992584,-4.58017,-597.688232
1733469417,-25.392753,18.094478,-18.592772,-2.948585,1.5639,-3.351905,-63.759933,-5.945114,-597.896301
