SamplingTime, AccelerationX, AccelerationY, AccelerationZ, GyroX, GyroY, GyroZ, MagneticFieldX, MagneticFieldY, MagneticFieldZ
1733469494,-7.751527,-1.809418,-6.352565,0.131587,-0.294374,-0.116115,-72.261353,-21.346451,-639.23291
1733469494,-7.564929,-1.71784,-6.634632,0.153543,-0.262605,-0.128357,-72.182068,-21.337143,-639.065918
1733469494,-7.380426,-1.686416,-6.952013,0.184195,-0.176603,-0.119652,-72.188477,-21.299316,-638.994751
1733469494,-7.287351,-1.731606,-7.273136,0.250068,-0.089394,-0.094002,-72.187317,-21.522659,-639.27417
1733469494,-7.284508,-1.748216,-7.630321,0.362035,0.046531,-0.034038,-72.383743,-21.533798,-638.945801
1733469494,-7.383568,-1.834258,-7.58513,0.456296,0.201003,0.033723,-72.345825,-21.59227,-639.286011
1733469494,-7.599795,-2.15972,-7.126491,0.486913,0.334252,0.089815,-72.442444,-21.714905,-639.192017
1733469494,-7.735815,-2.396147,-6.504896,0.4425,0.413755,0.129162,-72.32193,-21.957748,-638.951965
1733469494,-7.957728,-2.567033,-5.989544,0.343798,0.458154,0.130141,-71.93045,-21.990555,-639.878296
1733469494,-8.067562,-2.605041,-5.735011,0.22954,0.449266,0.099002,-72.07074,-22.101685,-639.31311
1733469494,-8.206575,-2.617012,-5.588665,0.127606,0.356528,0.038736,-71.963943,-21.981293,-640.162964
1733469494,-8.381053,-2.751237,-6.246622,0.060746,0.354478,-0.057023,-71.994034,-21.843018,-640.330872
1733469494,-8.691999,-2.773383,-6.894553,0.063044,0.315061,-0.142753,-71.863647,-21.989563,-639.825012
1733469494,-9.001899,-2.731335,-7.064092,0.131741,0.248178,-0.230787,-71.721771,-22.024429,-640.539307
1733469494,-8.984391,-2.864363,-7.774571,0.185611,0.319499,-0.328798,-71.297058,-22.243805,-639.950562
1733469494,-8.609998,-2.746897,-8.082077,0.234552,0.446392,-0.34964,-71.539337,-22.29332,-640.845337
1733469494,-8.293814,-2.75408,-8.27481,0.291168,0.615654,-0.334061,-71.552368,-22.567825,-640.940613
1733469494,-8.05185,-2.890999,-8.211663,0.359639,0.732956,-0.320085,-71.345581,-22.593216,-640.692505
1733469494,-7.845799,-2.955043,-7.969699,0.454195,0.755308,-0.30686,-71.160873,-23.148697,-641.687439
1733469494,-7.668927,-3.045873,-7.74614,0.5323,0.734883,-0.311105,-71.168686,-23.461502,-641.606689
1733469494,-7.630321,-3.145682,-7.322067,0.556475,0.668894,-0.335982,-71.152008,-23.700592,-642.700195
1733469494,-7.670573,-3.191471,-6.863129,0.507484,0.582993,-0.374558,-70.996216,-23.976456,-642.284607
1733469494,-7.522881,-3.23307,-6.599318,0.409812,0.472173,-0.426049,-71.102524,-24.300659,-643.154663
1733469494,-7.439982,-3.361908,-6.794445,0.31998,0.387712,-0.485567,-71.016098,-24.529922,-643.462341
1733469494,-7.254281,-3.320907,-7.375637,0.273257,0.421868,-0.538975,-70.880219,-24.769699,-642.960754
1733469494,-7.237672,-3.093009,-7.950246,0.263008,0.596723,-0.633002,-71.162201,-24.870148,-643.601257
1733469494,-7.137564,-2.768296,-8.273463,0.275745,0.741838,-0.715227,-70.758759,-25.329987,-644.380554
1733469494,-6.227169,-3.133711,-8.23336,0.269923,0.674773,-0.693401,-70.631943,-25.855881,-643.903503
1733469494,-5.624279,-3.01445,-8.89416,0.314918,0.737509,-0.650114,-70.439774,-26.063721,-645.198242
1733469494,-5.236568,-2.209549,-9.485827,0.432508,0.95197,-0.571465,-70.353149,-26.55719,-644.657471
1733469494,-4.739621,-1.698237,-9.185355,0.567133,1.101176,-0.48359,-70.409561,-26.82373,-644.707031
1733469494,-4.248212,-1.663671,-8.854506,0.684198,1.176382,-0.383055,-69.809494,-27.488541,-646.141541
1733469494,-3.861249,-1.599776,-8.630798,0.82369,1.179306,-0.292934,-70.052368,-27.808975,-646.052734
1733469494,-3.646369,-1.42051,-8.227225,0.982264,1.103178,-0.233342,-69.775436,-28.254486,-647.369019
1733469494,-3.149123,-1.154005,-7.583334,1.13734,1.010565,-0.175493,-69.400589,-28.52417,-647.061401
1733469494,-2.544438,-0.825401,-6.595726,1.192757,0.901454,-0.077319,-69.499771,-28.972275,-647.516968
1733469494,-2.32866,-0.568024,-5.3886,1.125372,0.767316,0.004408,-68.992233,-29.264114,-648.330811
1733469494,-2.007688,-0.202011,-4.094833,0.956965,0.69195,0.14364,-68.817368,-29.591507,-648.538025
1733469494,-1.621473,-0.11956,-4.19928,0.696532,0.973947,0.287919,-68.448196,-29.574692,-649.410706
1733469494,-1.032948,0.242563,-4.064756,0.46406,1.234242,0.537555,-67.79512,-29.807205,-649.198669
1733469494,-0.447716,0.713622,-3.279757,0.289882,1.452888,0.818435,-67.783005,-29.44368,-649.656372
1733469494,-0.027982,1.025616,-2.964022,0.155729,1.58408,1.11012,-66.817352,-29.296082,-651.126648
1733469494,0.156072,1.264887,-2.082058,0.06985,1.545825,1.368536,-66.140411,-29.074783,-651.212891
1733469494,0.201412,1.091906,-1.085621,-0.011367,1.335135,1.556997,-65.906448,-28.436829,-652.142761
1733469494,0.278476,0.646285,-0.207098,-0.086244,0.950911,1.712922,-65.095001,-27.714355,-651.970642
1733469494,-0.106692,0.401029,-0.75552,-0.105446,0.58549,1.859497,-64.521301,-27.140427,-651.946655
1733469494,-0.354791,0.772729,0.505925,0.000912,-0.001684,2.0579,-64.188553,-26.504028,-652.455566
1733469494,-1.463007,0.947356,0.527173,0.096476,-0.311322,2.248779,-63.538879,-25.940384,-651.681763
1733469494,-3.019388,0.895282,1.01574,0.068324,-0.37846,2.408729,-63.319489,-24.97052,-652.312439
1733469494,-5.112369,0.427964,2.450316,-0.147333,-0.313013,2.441734,-62.975037,-24.197678,-651.774536
1733469494,-7.252935,-0.333093,4.487482,-0.661568,-0.240533,2.257071,-62.414459,-22.975662,-651.255127
1733469495,-8.351424,-0.818368,5.857863,-1.429638,-0.134591,2.036905,-62.197556,-21.685059,-651.454224
1733469495,-8.718485,-1.332074,6.117784,-2.228346,0.019399,1.886937,-61.23941,-20.546692,-651.026306
1733469495,-9.05098,-1.455076,5.524022,-2.895791,0.178723,1.816826,-60.88208,-18.820343,-650.665527
1733469495,-9.664644,-1.415572,4.374356,-3.435786,0.251885,1.749159,-60.38031,-16.841293,-649.573486
1733469495,-10.36001,-1.3831,2.865111,-3.730094,0.231119,1.716388,-59.82254,-15.107834,-649.175659
1733469495,-11.190947,-1.479916,1.471237,-3.826231,0.261,1.673276,-59.00177,-13.38356,-647.604248
1733469495,-13.136236,-1.552041,1.227328,-3.897577,0.179969,1.54677,-58.747528,-11.439789,-647.15979
1733469495,-15.67813,-1.045069,1.537526,-4.052055,0.116741,1.270317,-58.44902,-9.880295,-645.156067
1733469495,-18.264616,-0.468665,1.951125,-4.427404,-0.053477,0.769038,-58.029129,-8.32518,-644.118408
1733469495,-19.488353,0.475997,1.374122,-4.852602,-0.374568,0.210432,-57.829346,-6.761078,-642.494873
1733469495,-19.479225,1.835305,-0.575057,-5.06754,-0.747152,-0.239338,-58.129837,-5.622528,-639.858154
1733469495,-19.314324,3.097648,-2.817975,-5.079043,-1.139311,-0.538885,-58.369125,-4.432373,-638.449707
1733469495,-19.429395,3.854066,-5.158158,-4.940452,-1.404237,-0.711094,-58.62735,-3.369736,-636.026794
1733469495,-19.983204,4.389769,-6.996456,-4.766847,-1.495544,-0.793397,-58.923782,-2.751663,-633.335938
1733469495,-20.989667,4.988768,-8.126818,-4.68272,-1.412786,-0.878144,-59.098312,-1.868225,-631.898193
1733469495,-22.588544,5.893178,-9.012673,-4.755052,-1.131205,-1.024958,-59.608429,-1.646484,-629.854187
1733469495,-24.020277,7.001992,-10.095451,-4.946431,-0.730203,-1.254145,-60.050842,-1.422318,-628.023926
1733469495,-25.067142,7.862858,-11.48708,-5.132949,-0.445917,-1.600503,-61.040634,-1.558594,-624.900513
1733469495,-25.916634,8.665963,-13.659369,-5.192294,-0.297335,-2.08558,-61.782318,-1.513992,-623.813904
1733469495,-25.946861,9.747244,-16.33893,-5.003799,-0.310051,-2.623231,-62.845215,-2.086243,-621.828186
1733469495,-25.490766,10.830919,-19.066973,-4.564833,-0.418497,-3.152089,-64.365707,-2.949615,-620.269348
1733469495,-24.872314,11.89185,-21.594951,-3.960263,-0.479518,-3.644364,-65.641159,-4.038071,-618.405212
1733469495,-23.632267,12.817658,-23.599047,-3.282697,-0.384573,-4.028773,-66.914871,-5.327087,-617.693481
1733469495,-22.07843,13.459304,-25.00609,-2.581172,-0.1162,-4.301858,-68.628403,-6.929047,-617.033691
1733469495,-20.399047,13.778631,-25.623345,-1.926653,0.26621,-4.498537,-70.399857,-8.675797,-616.948059
1733469495,-18.562545,14.057854,-25.274988,-1.341002,0.655959,-4.628235,-71.805405,-10.714706,-617.154297
1733469495,-16.788292,14.204798,-24.677037,-0.771577,1.028807,-4.710859,-73.491318,-12.644043,-616.791504
1733469495,-15.11654,14.192079,-23.653216,-0.206736,1.30609,-4.783473,-74.949234,-14.747559,-618.419006
1733469495,-13.45691,14.27842,-22.08247,0.292944,1.463278,-4.844362,-76.430206,-16.920181,-618.899353
1733469495,-11.783512,14.516494,-20.411168,0.682807,1.542142,-4.873415,-77.70108,-19.094666,-619.865051
1733469495,-10.208577,14.443919,-18.967763,1.01622,1.556642,-4.864707,-78.850754,-21.474319,-621.156738
1733469495,-8.80348,14.222905,-17.775601,1.335706,1.526762,-4.822207,-80.00528,-24.143463,-622.767639
1733469495,-7.805546,14.090475,-16.922068,1.635058,1.501837,-4.792517,-80.805588,-26.564621,-622.577698
1733469495,-6.929568,14.060697,-16.331897,1.940829,1.528446,-4.772882,-81.551117,-28.931168,-624.512756
1733469495,-5.932084,14.05142,-15.680524,2.256811,1.571342,-4.733393,-81.867096,-31.500488,-625.901489
1733469495,-4.779425,13.875895,-14.906898,2.587311,1.641891,-4.648862,-82.220505,-34.22554,-626.603699
1733469495,-3.455282,13.464242,-14.031668,2.91871,1.737779,-4.500904,-82.351105,-36.732391,-627.649414
1733469495,-2.16795,12.927342,-12.941109,3.220783,1.917017,-4.298769,-82.215485,-39.332321,-628.688599
1733469495,-1.035492,12.495638,-11.301081,3.4071,2.102137,-4.047577,-82.124786,-41.758057,-629.920654
1733469495,0.112378,12.131869,-9.505729,3.485528,2.244696,-3.747068,-81.674057,-44.158356,-630.671509
1733469495,1.135151,11.875839,-8.051401,3.483139,2.363307,-3.405717,-81.03392,-46.539093,-631.988037
1733469495,2.125901,11.6439,-6.881235,3.451914,2.459545,-2.986463,-80.668427,-48.243652,-632.847534
1733469495,3.177555,11.434408,-6.223278,3.441607,2.596488,-2.493336,-80.302063,-49.959351,-633.319092
1733469495,4.073136,11.068095,-5.75581,3.465187,2.747301,-1.964543,-79.80191,-51.619995,-634.451172
1733469495,4.755483,10.491541,-5.320664,3.52336,2.928655,-1.440131,-79.207321,-52.781067,-635.157532
1733469495,5.180603,9.829694,-4.534169,3.581624,3.104865,-0.933875,-78.437576,-54.046524,-636.56134
1733469495,5.305551,9.102156,-3.294721,3.602901,3.263013,-0.475354,-77.831345,-54.913177,-636.598022
1733469495,5.151873,8.368782,-1.826926,3.524036,3.453441,-0.066841,-77.336044,-55.450867,-638.132202
1733469495,4.827459,7.481282,-0.013617,3.291789,3.537556,0.276745,-76.40834,-56.2202,-639.129272
1733469495,4.50918,6.535273,1.33357,2.971863,3.511474,0.557806,-75.778946,-56.546432,-640.13623
1733469495,4.123563,5.812822,1.858649,2.68826,3.415651,0.803405,-74.984695,-56.936188,-641.319214
1733469495,3.681684,5.013758,2.026392,2.525738,3.25419,1.001585,-74.382523,-57.066315,-641.93103
1733469495,3.479224,4.46339,2.137573,2.493594,3.0096,1.189087,-74.078461,-57.188873,-642.615723
1733469495,3.581127,4.144513,2.352752,2.574455,2.663423,1.392566,-73.616653,-57.300629,-642.872192
1733469495,3.73705,3.955969,2.75004,2.723494,2.245449,1.609501,-73.343979,-57.287689,-642.841248
1733469495,3.75351,3.857358,2.926912,2.856016,1.926391,1.843636,-72.858368,-57.290375,-642.931519
1733469495,3.774459,3.932626,2.896236,2.944865,1.801301,2.149718,-72.821548,-57.031128,-643.082764
1733469495,3.692757,3.905841,3.147178,2.995348,1.864839,2.535821,-72.507309,-56.520813,-643.409119
1733469495,3.30729,3.958812,3.951929,2.991193,2.071856,3.00913,-72.319397,-56.028992,-643.518616
1733469495,2.418144,3.841646,5.147534,2.821443,2.450444,3.489134,-72.155579,-55.265366,-644.31311
1733469495,1.281796,3.416376,6.859238,2.426682,2.793072,3.910812,-71.66745,-54.244461,-645.130127
1733469495,0.102053,3.115156,9.103503,1.833362,2.890287,4.233969,-71.462631,-52.780441,-645.854614
1733469495,-0.761805,2.77069,10.973374,1.11361,2.689883,4.45637,-71.047607,-51.21019,-646.712158
1733469495,-1.173308,2.660257,11.935843,0.369299,2.240094,4.681759,-70.925232,-49.073486,-647.134521
1733469495,-1.763778,2.520945,11.498453,-0.225781,1.732968,4.944671,-70.332458,-46.789017,-647.822998
1733469495,-3.106776,2.379537,10.292823,-0.646554,1.377227,5.205065,-69.993958,-44.51149,-648.26123
1733469495,-5.23986,2.005443,9.191191,-0.994648,1.272136,5.408154,-69.609863,-41.765167,-649.100281
1733469495,-7.7834,1.364845,8.690952,-1.372357,1.348624,5.470814,-69.072037,-39.21991,-649.666992
1733469495,-10.23192,0.981772,8.821885,-1.813969,1.462494,5.374062,-68.521011,-36.417511,-650.304626
1733469495,-12.479327,0.354791,9.689484,-2.348953,1.374919,5.078094,-67.549637,-33.68457,-650.749146
1733469495,-13.859435,-0.234033,10.402058,-2.86685,1.013599,4.714118,-66.843414,-30.821793,-650.560669
1733469495,-15.243882,-0.258723,10.560973,-3.272482,0.436751,4.330124,-65.918839,-28.097046,-649.873047
1733469495,-16.631322,-0.025438,10.308235,-3.563313,-0.238071,3.98377,-65.070847,-25.311951,-649.661804
1733469495,-17.638533,0.117166,9.81922,-3.753641,-0.895291,3.791414,-64.324142,-22.716431,-648.110596
1733469495,-19.621979,0.240917,9.188796,-3.949584,-1.338375,3.651943,-63.632462,-19.910583,-646.866699
1733469495,-21.865196,0.273238,8.287679,-4.274964,-1.384244,3.51255,-63.040329,-17.201248,-644.503418
1733469495,-23.419781,0.846949,7.522731,-4.82463,-1.100968,3.406811,-62.077728,-14.171448,-643.161316
1733469495,-25.259276,1.618031,6.970269,-5.589549,-0.653316,3.266673,-61.313904,-11.416702,-641.622742
1733469495,-27.631631,2.397045,5.819257,-6.419034,-0.136741,2.988544,-61.313904,-11.416702,-641.622742
1733469495,-29.6263,3.39019,4.095731,-7.132459,0.272602,2.589963,-60.272156,-8.725372,-639.969849
1733469495,-31.414769,4.751892,2.290353,-7.715538,0.412439,2.056801,-59.578094,-6.195343,-637.434082
1733469495,-32.945262,5.675605,-0.307206,-8.159797,0.304307,1.370169,-58.868744,-4.012512,-634.875732
1733469495,-34.095527,6.38788,-4.130896,-8.345927,0.121436,0.586402,-58.611588,-2.2715,-631.671753
1733469495,-34.898332,8.350227,-7.980772,-8.217046,-0.172402,-0.165284,-58.582535,-1.08194,-628.324829
1733469495,-35.31238,10.416872,-11.865963,-7.86944,-0.486646,-0.859342,-58.815231,-0.464661,-625.394043
1733469495,-35.428498,11.944522,-15.920244,-7.326495,-0.685392,-1.483254,-59.21965,-0.214264,-622.292664
1733469495,-35.101241,13.276596,-19.6338,-6.625287,-0.695712,-1.995484,-60.37326,-0.365204,-619.306946
1733469495,-34.703953,13.907169,-22.274006,-5.8782,-0.548431,-2.469023,-61.379776,-1.158661,-617.135132
1733469495,-34.298884,13.893253,-23.791631,-5.238146,-0.309136,-2.963076,-62.736023,-2.075699,-615.42981
1733469495,-33.96594,14.239365,-25.276634,-4.689446,0.085497,-3.513714,-63.904266,-2.960739,-613.78949
1733469495,-33.136649,15.189713,-26.849176,-4.163921,0.60071,-4.08236,-65.650879,-4.801193,-612.66217
1733469495,-31.592239,16.549171,-28.097154,-3.585217,1.118021,-4.661565,-67.453827,-6.509277,-611.939392
1733469495,-29.264327,18.391509,-28.71381,-2.901262,1.471919,-5.198359,-69.344727,-8.70491,-611.926086
1733469495,-26.102484,20.227712,-29.107058,-2.066916,1.636604,-5.604102,-71.459717,-11.055573,-612.182922
1733469495,-22.996157,21.606623,-29.350069,-1.117532,1.720245,-5.892827,-73.464218,-13.729126,-613.036743
1733469495,-19.813665,22.378154,-28.960413,-0.129637,1.768367,-6.056836,-75.223846,-16.473923,-613.478943
1733469495,-16.740557,23.127389,-27.762265,0.785806,1.817379,-6.101234,-77.036026,-19.150467,-614.419922
1733469495,-13.772346,23.537696,-26.138547,1.568926,1.913775,-6.020206,-78.536179,-22.007202,-616.093384
1733469495,-11.048193,24.047062,-24.291121,2.22398,2.100387,-5.821254,-79.642624,-24.819229,-617.55542
1733469495,-8.577826,24.066515,-22.05778,2.741623,2.337459,-5.515287,-80.496704,-27.784256,-619.192139
1733469496,-6.541707,23.776667,-19.760244,3.108048,2.639063,-5.135275,-81.577988,-30.393433,-620.772583
1733469496,-4.74845,22.868367,-17.917158,3.365218,3.109509,-4.692537,-81.94014,-33.24324,-623.157043
1733469496,-3.223194,21.700745,-15.898546,3.571949,3.573428,-4.256931,-82.359955,-35.733765,-624.908752
1733469496,-2.11423,20.249858,-13.398551,3.794485,3.794423,-3.895364,-82.630905,-38.285538,-627.682617
1733469496,-1.1148,18.823064,-11.102661,4.076652,3.772163,-3.613768,-82.510452,-40.752975,-629.235474
1733469496,-0.266804,17.513136,-8.888025,4.374834,3.527248,-3.399756,-82.181503,-43.375626,-630.853149
1733469496,0.508618,16.151883,-7.053019,4.64942,3.211184,-3.250005,-81.667221,-45.706696,-632.023193
1733469496,1.457021,15.073145,-5.621137,4.847152,2.996996,-3.089902,-81.137924,-48.042404,-632.883057
1733469496,2.716222,14.368652,-4.199579,4.946729,2.909051,-2.862734,-80.427689,-50.459961,-634.269287
1733469496,3.995923,13.636026,-2.706495,4.939707,2.93663,-2.570769,-79.408997,-52.502945,-635.068665
1733469496,5.180603,12.9655,-1.091457,4.822615,3.025084,-2.198751,-78.826706,-54.470642,-635.480347
1733469496,6.114492,12.332682,0.480935,4.598048,3.154974,-1.770298,-77.882278,-56.290726,-636.505798
1733469496,6.712743,11.617415,1.714548,4.29701,3.3519,-1.315329,-76.817108,-57.740692,-637.31189
1733469496,7.132626,10.979061,2.759916,3.938669,3.5617,-0.825561,-76.289825,-58.773697,-637.855591
1733469496,7.416339,10.206033,3.873818,3.563299,3.679251,-0.325145,-75.519699,-59.730087,-638.792358
1733469496,7.682843,9.253589,4.859032,3.204313,3.674615,0.146832,-74.966888,-60.550919,-638.889648
1733469496,7.92795,8.149862,5.373037,2.903589,3.615761,0.57069,-74.45285,-60.860138,-640.19635
1733469496,8.291719,7.268347,5.741296,2.681203,3.475994,0.992989,-73.585388,-60.997147,-641.122253
1733469496,8.670601,6.934955,6.026355,2.513026,3.322803,1.460477,-72.914688,-60.810562,-642.187012
1733469496,8.915558,6.908319,6.125565,2.229213,3.185304,2.614276,-72.507446,-60.745529,-642.204651
1733469496,8.356811,6.634034,7.365163,2.01138,3.143187,3.238165,-72.160446,-59.931686,-642.870728
1733469496,7.278523,6.5034,7.649774,1.728865,3.217185,3.831353,-71.906769,-59.185532,-643.595398
1733469496,6.030246,6.167613,8.206425,1.370514,3.302296,4.345404,-71.482452,-58.129456,-644.304565
1733469496,6.030246,6.167613,8.206425,1.370514,3.302296,4.345404,-71.222504,-56.916412,-645.109741
1733469496,3.414281,5.390695,10.019435,0.393076,3.111444,5.055155,-70.937592,-54.946533,-646.060303
1733469496,2.196081,5.234473,10.35567,-0.070562,2.807261,5.348228,-70.517075,-53.226562,-647.182373
1733469496,0.970849,5.139004,9.998336,-0.426885,2.511255,5.644938,-69.748291,-50.949417,-648.777893
1733469496,-0.576554,5.245397,9.526229,-0.712511,2.24582,5.937358,-69.31926,-48.676086,-649.478088
1733469496,-2.256834,5.229086,9.506028,-0.953071,1.975702,6.204978,-68.703964,-45.905975,-650.117737
1733469496,-4.233846,5.224597,10.227581,-1.188523,1.6638,6.420083,-68.306824,-43.094543,-650.553833
1733469496,-6.716035,5.244349,11.407922,-1.526803,1.329299,6.552516,-67.390182,-40.198685,-651.489258
1733469496,-9.727641,5.095909,12.809278,-2.06202,0.995888,6.531037,-66.629135,-37.080307,-651.849854
1733469496,-12.857611,4.837484,13.813646,-2.790645,0.724585,6.384868,-65.620148,-33.941345,-651.834473
1733469496,-15.779435,4.429123,14.097359,-3.61721,0.471449,6.182753,-64.157562,-30.458786,-651.917664
1733469496,-18.807053,4.295647,13.331813,-4.395122,0.309114,5.922808,-62.982071,-27.003433,-651.453613
1733469496,-21.954979,4.414908,11.914894,-5.048048,0.267377,5.572138,-61.636261,-23.210632,-650.056702
1733469496,-24.707114,4.734983,10.939706,-5.597538,0.209177,5.205569,-60.134293,-19.576492,-649.826965
1733469496,-27.808503,5.060594,10.477176,-6.156117,0.037058,4.69272,-58.739517,-15.761887,-648.315491
1733469496,-30.678552,5.430947,9.565584,-6.707388,-0.225616,4.056488,-57.14003,-12.484848,-646.692139
1733469496,-33.283294,5.761197,7.929297,-7.19257,-0.509393,3.316331,-56.204819,-9.15094,-644.491211
1733469496,-35.849728,6.832303,5.893477,-7.605657,-0.765147,2.465989,-55.237366,-6.142166,-641.71167
1733469496,-37.21577,8.537424,3.377171,-7.916788,-0.914171,1.63807,-54.786163,-3.489273,-638.382751
1733469496,-37.049822,10.498574,0.849044,-8.131358,-0.96604,0.982088,-54.276169,-1.310257,-635.345337
1733469496,-36.299389,12.586617,-1.345242,-8.373405,-0.953807,0.480197,-53.959564,0.374191,-631.77301
1733469496,-36.473567,15.254057,-3.828179,-8.716224,-0.92488,-0.064108,-54.106216,2.086777,-627.825745
1733469496,-36.473567,15.254057,-3.828179,-8.716224,-0.92488,-0.064108,-54.365829,2.926819,-623.360291
1733469496,-37.160105,19.355774,-11.94572,-8.9063,-0.401486,-1.373622,-55.044708,3.407333,-620.424255
1733469496,-36.789602,21.350593,-16.289998,-8.557722,-0.159021,-2.006674,-55.909973,3.302521,-616.73407
1733469496,-36.244771,21.811177,-21.327997,-7.822316,0.196966,-2.630283,-57.013718,2.895782,-613.258484
1733469496,-35.13042,21.078551,-25.433006,-6.783092,0.544876,-3.234366,-58.308792,1.783295,-610.804626
1733469496,-33.864187,20.516513,-27.757327,-5.614776,0.820235,-3.837585,-60.340652,0.310577,-608.450439
1733469496,-32.309302,20.714184,-28.616396,-4.480319,1.05027,-4.382056,-62.193481,-1.157944,-607.134766
1733469496,-30.256125,21.228189,-28.306497,-3.537683,1.2489,-4.871697,-64.038025,-3.16301,-606.300476
1733469496,-27.904271,22.189461,-27.480497,-2.799127,1.444748,-5.255272,-66.150192,-5.240189,-606.130249
1733469496,-25.360581,23.085641,-26.856957,-2.157985,1.676322,-5.54989,-68.422302,-7.370651,-605.974548
1733469496,-22.791303,23.703943,-26.333226,-1.540917,1.882384,-5.780707,-70.567444,-9.901886,-606.092896
1733469496,-20.091243,24.002919,-25.945814,-0.867255,2.059112,-5.954538,-72.997269,-12.430893,-607.234863
1733469496,-17.413627,24.072052,-25.536405,-0.098749,2.194953,-6.087198,-75.130768,-15.117432,-608.253479
1733469496,-14.735413,24.22139,-24.517972,0.690889,2.294094,-6.152323,-77.109207,-17.833923,-609.711853
1733469496,-12.112865,24.420408,-22.821231,1.408187,2.371815,-6.135843,-78.717194,-20.725433,-611.272644
1733469496,-9.718663,24.56825,-20.980988,2.028855,2.485855,-6.0158,-80.290298,-23.473984,-612.627319
1733469496,-7.334487,24.466496,-19.362358,2.548894,2.705277,-5.79982,-81.710281,-26.511566,-614.615845
1733469496,-4.933402,24.176499,-17.861193,2.988835,3.055456,-5.461561,-82.367706,-29.404053,-616.52771
1733469496,-2.476652,23.735666,-16.197223,3.378835,3.464918,-4.990048,-83.100449,-32.076233,-618.456787
1733469496,-0.225953,22.805818,-13.911958,3.749636,3.704009,-4.449408,-83.6492,-34.751465,-620.829468
1733469496,1.460014,21.515643,-11.477354,4.123931,3.742994,-3.904116,-83.972946,-37.293671,-622.400269
1733469496,2.707543,20.130148,-9.169493,4.445134,3.631343,-3.386594,-83.816925,-39.542801,-625.185425
1733469496,3.584868,18.727745,-6.867019,4.706563,3.36749,-2.923687,-83.757004,-41.831314,-627.022095
1733469496,4.153042,17.202788,-4.961534,4.883115,3.086235,-2.539176,-83.595566,-43.6922,-628.31189
1733469496,4.583549,15.628151,-3.475333,4.903806,2.971132,-2.216351,-83.410553,-45.343964,-629.258911
1733469496,5.196914,14.434791,-2.285116,4.795012,3.034553,-1.905118,-82.756088,-47.405441,-630.43988
1733469496,6.035184,13.682114,-1.152808,4.634647,3.172654,-1.56326,-82.040756,-48.916519,-631.534058
1733469496,6.896498,13.058724,-0.312892,4.444255,3.405728,-1.155616,-81.5121,-50.219162,-632.722351
1733469496,7.540987,12.399121,0.624587,4.224579,3.668804,-0.697898,-80.854385,-51.535309,-633.602905
1733469496,7.952939,11.930756,2.104653,4.029166,3.768851,-0.183524,-79.965134,-52.30983,-634.929321
1733469496,8.10976,11.319935,3.739144,3.856299,3.656891,0.343552,-79.270782,-53.175217,-636.007263
1733469496,8.060978,10.574441,5.421819,3.653986,3.329505,0.844954,-78.77417,-53.495819,-637.612915
1733469496,7.781455,9.866655,6.5652,3.38081,2.893619,1.312947,-78.214935,-53.694717,-638.130188
1733469496,7.075764,9.122657,6.084564,3.134198,2.694603,1.738384,-77.897003,-53.48465,-638.876099
1733469496,6.405687,8.355913,4.963629,2.996207,2.751389,2.16503,-77.453476,-53.325195,-639.269714
1733469496,5.992687,7.922264,4.696975,2.930382,2.880032,2.623482,-76.725708,-53.013397,-640.590149
1733469496,5.578939,7.677905,5.009867,2.890832,3.007244,3.111839,-76.226868,-52.203613,-641.066284
1733469496,5.113566,7.653215,6.054188,2.845485,3.041036,3.642799,-75.863388,-51.107849,-641.819946
1733469496,4.447828,7.764246,7.735965,2.727488,2.933819,4.206074,-75.227798,-50.129883,-642.821899
1733469496,3.281104,7.863606,9.333795,2.46926,2.821425,4.747822,-74.740723,-48.656647,-643.595825
1733469496,1.700033,7.807192,10.906935,2.074336,2.704447,5.256392,-74.041138,-46.977722,-644.074829
1733469496,-0.054917,7.624634,12.712762,1.507965,2.49296,5.701429,-73.761398,-45.157684,-645.633057
1733469496,-2.002899,6.951116,13.91091,0.780905,2.233583,6.007359,-73.295654,-42.661819,-646.127686
1733469496,-3.83177,6.231359,14.095713,0.029221,1.993321,6.207081,-72.003281,-39.955414,-647.059204
1733469496,-5.674408,5.602282,13.526042,-0.651365,1.796888,6.320836,-71.28067,-37.20639,-647.624756
1733469496,-7.420678,5.001338,12.867637,-1.180151,1.550917,6.362828,-70.254288,-34.294815,-647.789795
1733469496,-9.282619,4.400243,12.666075,-1.589915,1.256781,6.35864,-68.779022,-31.469437,-648.646729
1733469496,-11.528081,3.501071,13.016227,-2.00227,0.921117,6.308678,-67.753403,-28.074127,-648.450012
1733469496,-14.363863,2.646042,13.371616,-2.484267,0.688564,6.17581,-65.998535,-24.995255,-648.154053
1733469496,-17.381306,2.601899,13.521104,-3.064241,0.615348,5.991006,-64.456497,-21.8703,-648.415161
1733469496,-20.569185,2.349909,13.948619,-3.767096,0.562421,5.718359,-62.600067,-18.531021,-646.634521
1733469496,-24.328082,2.054225,14.003536,-4.521742,0.538182,5.301358,-60.965179,-15.217026,-646.419006
1733469496,-27.927315,2.094926,13.483096,-5.293241,0.486464,4.697163,-59.57933,-11.884933,-644.743958
1733469496,-30.577247,1.905785,12.667272,-6.080064,0.302438,3.941009,-58.313416,-9.167892,-643.652161
1733469496,-32.678758,2.381183,11.141866,-6.801574,-0.034575,3.081017,-57.044525,-6.546829,-640.633545
1733469497,-34.459894,4.141819,8.826524,-7.364221,-0.505049,2.189376,-56.213959,-3.945953,-638.008911
1733469497,-35.293076,6.319346,5.531953,-7.724759,-0.923369,1.413476,-55.413712,-1.705383,-634.625916
1733469497,-35.643976,8.956259,1.885583,-7.952331,-1.154593,0.804877,-55.206055,0.323624,-630.493103
1733469497,-35.756354,11.994801,-1.723077,-8.109174,-1.141899,0.389105,-54.762848,1.686218,-626.84729
1733469497,-35.763088,14.957326,-5.438429,-8.243383,-0.796553,0.114439,-54.848541,2.550354,-623.468201
1733469497,-35.642929,17.058687,-8.922441,-8.405793,-0.331336,-0.177249,-55.082138,3.120468,-619.258911
1733469497,-35.959413,18.353202,-13.086706,-8.403345,0.192313,-0.615426,-55.9133,3.252228,-616.863525
1733469497,-36.483144,18.935142,-17.848624,-8.043633,0.709955,-1.285163,-56.849197,2.896744,-613.840637
1733469497,-36.056527,18.751088,-21.720646,-7.257553,0.96891,-2.104833,-58.436737,1.904953,-611.911499
1733469497,-34.758122,18.703803,-24.526351,-6.115074,0.985448,-2.9632,-59.988693,0.748566,-609.900635
1733469497,-32.523584,18.634221,-26.01345,-4.787507,0.822327,-3.704432,-61.510422,-0.648773,-608.900635
1733469497,-30.091673,18.638561,-26.058192,-3.519082,0.612746,-4.279351,-63.331009,-2.287643,-608.014404
1733469497,-28.044631,18.975245,-24.743326,-2.567562,0.457381,-4.736835,-65.479752,-3.952316,-607.15448
1733469497,-26.068517,19.307291,-23.108685,-1.963186,0.418079,-5.095071,-67.255844,-5.984894,-606.838257
1733469497,-24.075044,19.899108,-22.037878,-1.611794,0.545588,-5.331714,-69.248276,-8.174591,-606.938354
1733469497,-22.20637,20.157083,-21.775414,-1.392742,0.862561,-5.503796,-71.422668,-10.540054,-606.664795
1733469497,-20.211551,20.350415,-21.953782,-1.121689,1.280643,-5.614562,-73.492889,-12.831238,-607.348999
1733469497,-17.939154,20.639215,-22.174198,-0.717919,1.694855,-5.668402,-75.492493,-15.414124,-608.455383
1733469497,-15.589246,20.768353,-21.997626,-0.19342,2.018722,-5.682479,-76.92981,-18.12529,-609.776611
1733469497,-13.409774,20.770897,-21.639842,0.413183,2.310071,-5.658758,-78.739624,-20.645096,-610.529053
1733469497,-11.467328,20.603003,-20.985776,1.034835,2.628479,-5.617186,-80.406738,-23.334213,-612.314575
1733469497,-9.521141,20.700716,-19.746777,1.618562,2.905099,-5.529448,-81.566757,-25.951492,-614.142395
1733469497,-7.369053,20.787955,-18.076223,2.185142,3.05236,-5.386817,-82.435211,-28.759949,-615.906433
1733469497,-5.10354,20.62066,-16.360178,2.736193,3.077165,-5.157235,-83.291061,-31.769501,-617.849915
1733469497,-2.9317,19.978266,-14.62513,3.235294,3.004884,-4.889002,-83.291061,-31.769501,-617.849915
1733469497,-1.233313,19.040038,-12.71366,3.644638,2.822393,-4.619214,-83.811539,-34.270081,-619.692871
1733469497,0.369306,18.193838,-11.157578,3.982234,2.649596,-4.307611,-84.103851,-39.2388,-622.81073
1733469497,1.953369,17.429938,-9.882367,4.243059,2.542113,-3.9241,-84.150986,-41.664688,-624.040894
1733469497,3.211971,16.416442,-8.548946,4.416048,2.504843,-3.50432,-84.150986,-41.664688,-624.040894
1733469497,4.303129,15.458013,-7.471256,4.482501,2.64392,-3.023105,-83.781281,-45.588852,-626.43219
1733469497,5.218462,14.46008,-6.414066,4.453246,2.917069,-2.504103,-83.781281,-45.588852,-626.43219
1733469497,5.865196,13.291261,-5.202151,4.384885,3.243478,-1.996003,-83.209,-47.487686,-627.57019
1733469497,6.380547,12.289587,-3.733757,4.301526,3.481648,-1.496025,-82.731369,-49.067764,-629.05835
1733469497,6.702717,11.489026,-2.094178,4.194366,3.577282,-1.033414,-82.389832,-50.441605,-630.876953
1733469497,6.944083,10.788123,-0.269497,4.076818,3.501341,-0.602821,-81.70639,-51.432098,-631.702881
1733469497,7.138462,10.105476,1.549348,3.871337,3.271676,-0.19333,-80.99765,-52.520889,-632.64209
1733469497,6.906224,9.519495,2.705298,3.620167,3.022702,0.187133,-80.466248,-53.040085,-633.479858
1733469497,6.386533,8.981399,3.746477,3.351246,2.699971,0.522159,-80.046463,-53.574249,-634.592834
1733469497,6.015432,8.183531,4.236241,3.015727,2.417866,0.814868,-79.471512,-53.836853,-634.922852
1733469497,5.48332,7.447164,3.381211,2.713364,2.412165,1.085511,-79.212326,-53.889008,-635.735474
1733469497,5.138705,6.820632,2.341679,2.557911,2.578839,1.342991,-78.921341,-53.783478,-636.407471
1733469497,5.418228,6.575076,2.119467,2.552115,2.687882,1.670171,-78.664642,-53.488266,-636.464722
1733469497,5.78469,6.697779,2.64664,2.661715,2.683536,2.100086,-78.035736,-53.411041,-637.707214
1733469497,5.793519,6.889166,3.846435,2.757582,2.612205,2.591258,-77.584503,-52.880936,-638.606445
1733469497,5.486912,7.103746,5.813122,2.713955,2.466478,3.124269,-77.111771,-52.242798,-638.912354
1733469497,5.001188,7.49011,7.664288,2.545842,2.285071,3.724812,-76.748428,-51.299286,-639.483032
1733469497,4.111443,7.839963,9.309404,2.284608,2.088731,4.383991,-76.547287,-49.812378,-640.032959
1733469497,2.79538,7.999926,10.731261,1.921451,1.956575,5.062205,-76.200562,-48.02034,-641.095032
1733469497,1.04447,7.756016,11.80925,1.38598,1.885698,5.654194,-75.621628,-46.188339,-641.570312
1733469497,-0.922067,7.209689,11.935395,0.710276,2.005076,6.099714,-75.712631,-43.6996,-642.247986
1733469497,-2.927959,6.391321,11.280431,0.033984,2.275342,6.370147,-74.922913,-40.933243,-643.5224
1733469497,-4.726304,5.855469,11.169849,-0.515761,2.480067,6.545031,-74.236801,-37.917267,-644.337891
1733469497,-6.529886,5.218611,12.508058,-1.030938,2.359543,6.588739,-73.314377,-34.998505,-645.291748
1733469497,-8.525602,4.346823,14.410101,-1.573562,1.85478,6.474061,-71.928345,-31.959732,-645.930359
1733469497,-10.358513,3.971382,15.543756,-2.097857,1.136857,6.320014,-70.372192,-28.77095,-646.141296
1733469497,-12.673856,3.701885,15.457265,-2.58075,0.488365,6.104892,-68.971954,-25.499161,-646.195801
1733469497,-15.045612,3.347692,14.421773,-3.041368,0.127849,5.86146,-67.387054,-22.225098,-645.342224
1733469497,-16.997934,3.382708,13.424588,-3.4482,0.023008,5.721726,-65.672943,-19.109772,-644.582642
1733469497,-19.6754,3.645022,13.204022,-3.877601,0.023425,5.579966,-64.03447,-16.008835,-643.846558
1733469497,-22.948872,3.884443,13.60535,-4.410709,0.018154,5.312871,-62.4944,-12.697388,-642.711914
1733469497,-26.344448,4.305672,14.189236,-5.091263,-0.122996,4.857557,-60.864807,-9.810104,-641.036499
1733469497,-29.817238,5.138555,14.116662,-5.866405,-0.423723,4.200572,-58.839447,-6.938477,-639.104797
1733469497,-32.85114,6.142923,12.303054,-6.569704,-0.714307,3.411757,-57.740021,-4.461349,-636.489014
1733469497,-35.226488,7.086388,9.634567,-7.142555,-1.012768,2.560434,-56.659134,-2.06691,-633.919861
1733469497,-37.115662,8.176498,6.55712,-7.559698,-1.380626,1.703832,-56.179718,-0.083847,-630.199097
1733469497,-38.488887,9.766547,2.600103,-7.75838,-1.634921,0.902511,-55.251846,1.340851,-625.82605
1733469497,-39.169588,11.837532,-1.867777,-7.760046,-1.62404,0.234703,-54.990295,2.344666,-622.932678
1733469497,-39.34242,14.073866,-6.146065,-7.634706,-1.32478,-0.288149,-55.031464,2.925735,-619.235596
1733469497,-39.38746,16.119861,-9.889549,-7.398904,-0.796605,-0.741106,-55.358002,2.886063,-615.712036
1733469497,-38.891861,17.234661,-13.118878,-7.036833,-0.159129,-1.16397,-55.895599,2.688156,-612.514404
1733469497,-37.822999,17.414824,-15.486744,-6.598814,0.470512,-1.595858,-57.07016,2.015121,-610.532715
1733469497,-36.638169,17.644219,-16.554408,-6.197483,0.903539,-2.077969,-58.163116,1.233307,-608.049133
1733469497,-35.578884,18.097321,-17.539921,-5.830577,1.161317,-2.629504,-59.412643,-0.061661,-606.765564
1733469497,-34.439693,18.606389,-19.157953,-5.400846,1.318642,-3.222983,-61.22998,-1.483734,-605.226685
1733469497,-33.182288,19.111715,-21.299267,-4.831399,1.52697,-3.84128,-63.073669,-3.085114,-604.403198
1733469497,-31.370925,19.643377,-23.032519,-4.126662,1.714896,-4.465107,-64.906403,-5.296738,-603.036743
1733469497,-28.885444,20.295049,-23.947703,-3.260362,1.79989,-4.98485,-67.288757,-7.27095,-603.29541
1733469497,-25.957037,20.815489,-24.30384,-2.305191,1.784236,-5.380405,-69.420181,-9.610214,-603.347961
1733469497,-23.140408,21.081544,-23.848493,-1.364308,1.69166,-5.667333,-71.445679,-12.001877,-604.199219
1733469497,-20.420894,21.235821,-22.895451,-0.541586,1.596584,-5.867367,-73.332443,-14.676743,-604.869507
1733469497,-17.846678,21.14948,-21.720347,0.121835,1.62145,-5.943061,-75.444916,-17.108978,-605.602783
1733469497,-15.598523,21.254376,-20.584747,0.637083,1.821167,-5.918413,-77.359116,-19.679489,-606.834106
1733469497,-13.502549,21.208138,-19.173066,1.010827,2.074865,-5.828671,-78.500015,-22.636749,-608.019287
1733469497,-11.440842,20.949564,-18.05662,1.325504,2.376695,-5.697686,-79.931824,-25.28537,-609.485718
1733469497,-9.492112,20.586094,-17.123779,1.644074,2.669253,-5.540688,-81.378967,-27.920273,-611.072693
1733469497,-7.645284,19.913922,-16.205902,1.990167,2.909828,-5.36112,-82.237946,-30.66185,-612.081909
1733469497,-5.96665,19.162143,-15.72362,2.379462,3.192595,-5.157165,-83.0215,-33.402313,-615.16626
1733469497,-4.427178,18.462587,-14.922161,2.834915,3.434647,-4.921119,-83.54007,-36.131378,-616.825562
1733469497,-2.736423,18.072182,-13.292458,3.35399,3.479851,-4.621874,-83.843628,-38.65889,-618.778442
1733469497,-1.111658,17.761535,-11.145458,3.82274,3.313277,-4.281177,-84.092636,-41.053665,-620.514282
1733469497,0.011522,17.029807,-9.163956,4.185224,3.064729,-3.959685,-84.032379,-43.366196,-621.627441
1733469497,0.983718,16.056115,-7.571663,4.410118,2.870117,-3.652578,-83.93988,-45.647919,-623.2771
1733469497,2.011578,14.888642,-6.602909,4.510462,2.85482,-3.338983,-83.606934,-47.804306,-624.42627
1733469497,2.938134,13.828161,-5.592556,4.534684,2.95449,-3.017201,-82.981812,-49.761551,-625.352356
1733469497,3.751115,12.856564,-4.439299,4.495121,3.09751,-2.668756,-82.942062,-51.635132,-626.401733
1733469497,4.673631,12.126931,-3.310133,4.462934,3.225417,-2.268097,-82.11087,-53.390762,-626.660034
1733469497,5.559187,11.637765,-1.755698,4.407762,3.264742,-1.823167,-81.378204,-54.670837,-627.97406
1733469497,6.283582,11.064803,0.086341,4.244405,3.173854,-1.346617,-81.314972,-55.803741,-628.841187
1733469497,6.698228,10.267534,1.108964,4.014753,3.104531,-0.864666,-80.839935,-56.673203,-629.233459
1733469497,6.61473,9.346065,1.236605,3.815207,3.162795,-0.409011,-80.272354,-57.42955,-630.330444
1733469498,6.38354,8.516923,1.415572,3.655575,3.296663,0.024902,-79.686737,-57.882874,-631.215027
1733469498,6.13155,7.881862,1.683872,3.514897,3.488881,0.435877,-79.151886,-58.288483,-632.271484
1733469498,5.922357,7.536049,2.239476,3.395479,3.6554,0.840663,-78.895477,-58.478348,-633.283936
1733469498,6.007351,7.252336,3.252972,3.325888,3.664001,1.264339,-78.408844,-58.384979,-634.441833
1733469498,6.185869,7.226,4.525041,3.290765,3.5053,1.74642,-77.960236,-58.065399,-635.062866
1733469498,6.221034,7.343316,5.588665,3.26739,3.281857,2.282801,-77.314621,-57.627609,-635.007385
1733469498,5.950489,7.400477,6.394464,3.232786,3.086879,2.877141,-76.974396,-56.924896,-636.363403
1733469498,5.418827,7.541735,7.099257,3.146445,3.007107,3.526546,-76.908966,-55.80307,-637.335571
1733469498,4.645948,7.583783,7.915231,2.98107,3.021234,4.227197,-76.569778,-54.506454,-638.144653
1733469498,3.733458,7.77098,8.832659,2.760123,3.071953,4.984381,-76.330551,-52.662292,-638.883972
1733469498,2.220323,7.637503,10.023176,2.478868,3.148596,5.698925,-75.991714,-50.69548,-639.872559
1733469498,0.297779,7.428609,11.558457,1.985583,3.228209,6.297778,-75.503738,-48.1418,-641.396606
1733469498,-1.551592,7.328202,13.205967,1.245942,3.234507,6.76696,-75.069229,-45.357162,-642.879333
1733469498,-3.491345,7.102848,14.376882,0.339321,3.169323,7.086939,-74.540298,-42.436646,-643.848572
1733469498,-5.47539,6.628796,14.85258,-0.660353,3.103546,7.238859,-73.292023,-38.592926,-645.315247
1733469498,-7.483377,6.222231,14.875474,-1.652575,2.932249,7.244632,-72.072983,-35.191437,-645.698242
1733469498,-8.908824,6.190807,13.887716,-2.488903,2.719178,7.167006,-70.78009,-31.43811,-647.241455
1733469498,-10.059837,5.976825,12.505963,-3.108595,2.417583,7.029941,-69.209961,-27.71138,-647.667297
1733469498,-11.321431,5.682787,10.958111,-3.50595,2.099511,6.822499,-67.055054,-24.159103,-647.374512
1733469498,-12.964752,5.235221,9.489418,-3.689395,1.799001,6.552493,-65.371582,-20.804337,-648.057373
1733469498,-15.097387,4.951359,8.81575,-3.726054,1.512739,6.234112,-63.047653,-17.577957,-647.271362
1733469498,-17.624167,5.209783,9.392004,-3.811961,1.170017,5.872118,-60.888458,-14.477417,-646.518555
1733469498,-20.450522,5.649568,10.423007,-4.071211,0.823854,5.445344,-58.654617,-11.616623,-645.37561
1733469498,-23.534104,6.306477,11.3138,-4.543942,0.512,4.940855,-56.955505,-8.492218,-643.36792
1733469498,-26.971879,7.546973,11.698668,-5.249992,0.32317,4.339945,-55.262466,-5.666031,-641.77771
1733469498,-30.794222,8.691999,11.292402,-6.204686,0.251451,3.549998,-53.767975,-3.354202,-638.664917
1733469498,-33.950378,9.328707,9.683798,-7.271097,0.212348,2.566533,-52.647675,-0.843613,-636.096558
1733469498,-35.726277,11.729643,6.330868,-8.138632,0.135803,1.590759,-52.153458,1.235321,-632.632751
1733469498,-36.746656,13.959842,1.865981,-8.68044,0.064114,0.65565,-51.918701,2.762268,-628.850159
1733469498,-37.311688,16.189292,-2.934094,-8.843629,-0.024371,-0.220145,-52.232254,3.751892,-625.058533
1733469498,-37.610364,17.819295,-7.53964,-8.673316,-0.175979,-1.070636,-52.682236,4.302628,-621.209534
1733469498,-36.892403,18.726099,-12.332383,-8.153097,-0.20324,-1.779844,-53.436981,4.189392,-617.816162
1733469498,-35.725978,19.88594,-15.953613,-7.472621,-0.03806,-2.319785,-54.693726,3.92244,-615.187683
1733469498,-34.420689,20.995353,-18.051083,-6.855674,0.235922,-2.736153,-56.343674,3.016739,-612.479492
1733469498,-32.94631,21.183148,-19.391387,-6.332151,0.492116,-3.132519,-57.985306,2.064529,-610.491394
1733469498,-31.579819,21.641638,-20.850953,-5.798254,0.729278,-3.509315,-59.791565,0.618729,-608.018982
1733469498,-30.005482,21.784841,-22.262484,-5.210296,0.929696,-3.861874,-61.656708,-0.775269,-607.025757
1733469498,-28.619688,21.523723,-23.405117,-4.558544,1.078741,-4.224766,-63.788651,-2.560074,-606.231873
1733469498,-27.289709,21.250186,-24.5681,-3.852399,1.348255,-4.605474,-65.889725,-4.582657,-605.927734
1733469498,-25.486576,20.779575,-24.950724,-3.138374,1.634054,-4.975332,-68.255951,-6.61348,-606.038452
1733469498,-23.021446,20.204817,-24.857051,-2.365595,1.905621,-5.280446,-70.398544,-9.151581,-606.175415
1733469498,-20.350864,19.571401,-24.221689,-1.568257,2.128661,-5.514469,-72.776581,-11.262894,-607.083252
1733469498,-17.820043,19.194764,-22.938696,-0.837625,2.32447,-5.687548,-75.066589,-13.837494,-608.431763
1733469498,-15.441104,18.824411,-21.253178,-0.226967,2.442613,-5.858988,-76.871826,-16.714783,-609.362244
1733469498,-13.1717,18.595615,-19.486108,0.313786,2.442424,-6.012449,-78.686111,-19.499939,-611.233582
1733469498,-11.040711,18.602049,-17.883639,0.791778,2.320307,-6.122334,-80.328964,-22.593536,-611.691284
1733469498,-9.128642,18.582147,-16.618303,1.22537,2.154532,-6.193933,-81.357361,-25.599976,-613.677673
1733469498,-7.206697,18.736573,-15.730354,1.649459,2.008778,-6.183092,-82.634567,-28.529037,-614.861694
1733469498,-5.157559,18.827703,-14.993538,2.089833,1.882613,-6.049984,-83.081055,-31.760284,-615.797668
1733469498,-3.161543,18.712781,-14.365809,2.547803,1.833394,-5.801292,-83.598022,-34.562103,-617.076904
1733469498,-1.32968,18.117971,-13.443293,2.970954,1.870194,-5.452981,-83.900528,-37.394531,-618.651733
1733469498,0.421529,17.41243,-12.33373,3.299976,2.035206,-4.984004,-84.098831,-39.86084,-619.950317
1733469498,1.851017,16.45026,-11.113136,3.516198,2.324219,-4.459097,-84.331787,-42.172272,-620.966614
1733469498,3.041085,15.224878,-9.53835,3.636277,2.62727,-3.923243,-84.459335,-44.237442,-622.516052
1733469498,4.02585,13.884724,-8.094796,3.722064,2.920945,-3.396632,-84.15152,-46.141937,-624.399414
1733469498,4.74022,12.653356,-6.835296,3.761179,3.238686,-2.884151,-83.732132,-47.96962,-624.955444
1733469498,5.267094,11.391163,-5.242853,3.714692,3.477194,-2.411822,-83.433838,-49.310181,-627.197266
1733469498,5.434838,10.320206,-3.760243,3.630714,3.645099,-2.004344,-82.937241,-50.613113,-628.578125
1733469498,5.615001,9.566033,-2.373252,3.536247,3.671894,-1.627743,-82.243973,-51.961411,-629.819458
1733469498,5.987449,9.045444,-1.085621,3.465956,3.510784,-1.255752,-81.587479,-52.784592,-630.72168
1733469498,6.325182,8.646809,-0.271742,3.469143,3.21198,-0.886567,-81.150894,-53.675125,-631.88147
1733469498,6.662016,8.075792,0.344615,3.520134,2.89179,-0.524744,-80.917404,-54.321396,-632.104126
1733469498,6.751499,7.701249,1.190666,3.532317,2.578053,-0.192507,-80.626801,-54.82428,-632.433838
1733469498,6.725761,7.406912,1.905934,3.477933,2.3035,0.125316,-79.89238,-55.118851,-632.763245
1733469498,6.666954,7.159411,2.283769,3.39281,2.114472,0.448298,-79.578384,-55.464844,-633.368591
1733469498,6.419752,6.9164,2.405574,3.336169,1.988839,0.77506,-79.357422,-55.60257,-632.955261
1733469498,5.889138,6.641964,2.206406,3.410823,2.038639,1.492718,-79.41832,-55.356812,-633.989197
1733469498,5.841553,6.968025,3.083432,3.461556,2.071527,1.928193,-78.970016,-55.210556,-634.491089
1733469498,5.801151,7.381922,4.64116,3.414214,1.999552,2.407814,-78.730011,-54.648743,-634.681458
1733469498,5.596895,7.89503,6.415263,3.253352,1.782885,2.930309,-78.742325,-53.980576,-635.01886
1733469498,5.1821,8.459612,8.041076,3.068813,1.45455,3.493674,-78.60759,-52.94133,-635.349976
1733469498,4.468777,8.977059,9.257929,2.860258,1.129076,4.078601,-79.097809,-51.309601,-635.009766
1733469498,3.548955,9.125949,10.189872,2.574154,0.883233,4.653023,-79.133652,-49.558624,-635.183472
1733469498,2.46902,9.081805,11.033678,2.198294,0.72594,5.195632,-79.30925,-47.748734,-635.60376
1733469498,1.104774,8.990227,11.581502,1.733378,0.682284,5.679328,-79.240768,-45.004837,-635.690735
1733469498,-0.353444,8.700828,11.968315,1.236006,0.716773,6.114923,-79.112656,-42.451462,-635.519104
1733469498,-2.069189,7.914782,12.173917,0.764286,0.869819,6.490366,-79.009171,-39.449173,-636.354126
1733469498,-4.216189,7.23408,12.848782,0.277212,1.033446,6.74737,-78.017029,-36.502747,-637.222534
1733469498,-6.307375,6.745514,14.13387,-0.212296,1.099654,6.940633,-77.099579,-33.13475,-637.762817
1733469498,-8.26224,6.414665,15.585205,-0.738019,1.061021,7.121839,-77.099579,-33.13475,-637.762817
1733469498,-10.875362,6.068852,16.831387,-1.337366,1.037877,7.254247,-74.444946,-26.031891,-638.237183
1733469498,-14.435091,5.476138,18.63871,-2.07637,0.914788,7.213296,-74.444946,-26.031891,-638.237183
1733469498,-17.875858,5.024083,19.937864,-2.949675,0.789147,6.991416,-72.544479,-22.350937,-638.355164
1733469498,-20.713885,4.561702,20.509629,-3.927603,0.654282,6.626328,-70.995041,-18.708023,-637.838623
1733469498,-23.039403,4.830003,20.383934,-4.910875,0.457084,6.1836,-68.805588,-15.238556,-637.130493
1733469498,-24.888923,5.882404,19.233071,-5.778852,0.163184,5.702457,-66.770309,-11.792282,-636.021179
1733469498,-26.300904,7.438336,17.244986,-6.416663,-0.213068,5.315048,-64.787018,-8.523453,-633.417664
1733469498,-28.307694,9.398588,14.816816,-6.828655,-0.581746,4.962754,-62.407501,-5.53038,-631.604431
1733469498,-31.039029,11.402236,12.484565,-7.225176,-0.747729,4.602513,-60.586472,-2.677536,-628.930359
1733469498,-33.828573,14.375685,10.004172,-7.780496,-0.597891,4.217255,-58.111877,-0.406479,-625.808655
1733469498,-36.405931,17.926136,6.780529,-8.457004,-0.1683,3.798061,-56.252625,1.720612,-622.365234
1733469498,-39.117365,20.912903,2.744054,-9.10722,0.141685,3.216635,-54.471283,3.413956,-618.597717
1733469498,-42.389191,21.344009,-3.551349,-9.32117,0.27584,2.299741,-53.498489,4.293701,-614.873047
1733469498,-45.033736,19.833716,-11.263821,-8.898914,0.424044,1.048491,-52.984222,4.707016,-610.990356
1733469498,-45.387479,18.305018,-17.662774,-7.92408,0.526694,-0.263847,-52.785965,4.195694,-607.59021
1733469498,-43.690888,17.493085,-21.911434,-6.587157,0.530328,-1.434531,-53.292343,3.540039,-603.979248
1733469498,-40.883836,17.881394,-23.693319,-5.187258,0.470129,-2.324904,-54.247025,2.535645,-601.505554
1733469498,-37.548115,18.532168,-23.641544,-4.009095,0.484094,-2.913032,-55.58284,1.096725,-599.683289
1733469498,-34.497603,18.677616,-22.494422,-3.197962,0.648088,-3.286325,-57.057831,-0.052994,-599.080322
1733469498,-31.791706,18.545636,-21.341614,-2.672719,0.961662,-3.521695,-58.487869,-1.543289,-598.009521
1733469499,-29.608194,18.444181,-20.567689,-2.301014,1.32767,-3.700387,-60.242157,-3.088989,-597.566406
1733469499,-27.749695,17.871219,-20.297593,-1.922794,1.643677,-3.897837,-62.349762,-4.671829,-597.44104
1733469499,-26.025571,16.692224,-20.444238,-1.434013,1.869612,-4.174104,-64.668213,-6.476532,-597.886841
1733469499,-24.339903,15.873707,-20.058921,-0.882181,1.960966,-4.529809,-66.714569,-8.233368,-598.518494
1733469499,-22.452225,15.692196,-19.143288,-0.335634,1.952599,-4.900192,-68.62439,-10.115417,-599.212585
1733469499,-20.446632,15.842133,-17.99886,0.177402,1.903693,-5.242276,-70.504227,-12.144684,-600.017883
1733469499,-18.431013,16.309751,-16.614562,0.604938,1.86124,-5.535445,-72.697861,-14.320389,-600.900696
1733469499,-16.401927,17.095947,-15.355961,0.936804,1.887229,-5.762151,-74.752518,-16.693832,-601.942017
1733469499,-14.197616,17.857303,-14.229938,1.210769,1.949172,-5.8913,-76.772598,-19.208099,-603.172058
1733469499,-11.893646,18.401385,-13.287819,1.491605,1.982825,-5.91928,-78.244995,-21.837509,-604.447083
1733469499,-9.640852,18.540997,-12.570307,1.80886,1.975748,-5.883054,-79.744705,-24.435776,-605.068359
1733469499,-7.319523,18.471715,-11.770644,2.16402,1.90291,-5.766579,-80.997269,-27.108704,-606.620483
1733469499,-4.944026,18.331804,-11.206659,2.513666,1.913498,-5.506954,-82.226242,-30.010376,-608.009277
1733469499,-2.965069,17.919253,-10.739491,2.803081,2.087339,-5.146918,-82.66861,-32.434067,-608.995667
1733469499,-1.502062,17.097443,-10.054151,3.032846,2.402491,-4.735723,-83.482437,-34.80365,-610.199402
1733469499,-0.411204,16.01287,-9.361927,3.232197,2.84527,-4.324088,-83.72139,-37.19136,-611.584717
1733469499,0.388908,14.999524,-8.323741,3.384195,3.348648,-3.913954,-84.504105,-39.211395,-613.128601
1733469499,1.173458,14.078804,-7.167043,3.504062,3.812444,-3.529924,-84.758728,-41.27739,-615.326904
1733469499,2.053926,13.43192,-5.919215,3.637321,4.121557,-3.159778,-84.876968,-43.042114,-617.360352
1733469499,2.946364,12.975825,-4.631733,3.794676,4.266317,-2.795219,-84.798157,-44.761688,-619.197632
1733469499,3.790171,12.524967,-3.041384,3.945914,4.276696,-2.429357,-84.711197,-46.286591,-621.249329
1733469499,4.69473,11.914146,-0.837971,3.99335,4.093442,-2.065383,-84.684418,-47.571854,-623.074768
1733469499,5.723788,11.390414,1.220594,3.899796,3.769485,-1.678546,-84.176239,-48.91481,-624.651123
1733469499,6.766762,10.882395,2.164508,3.748535,3.478871,-1.244369,-83.715668,-50.023331,-626.14386
1733469499,7.552808,10.292823,2.009034,3.597993,3.368403,-0.713026,-83.12883,-50.943466,-627.216614
1733469499,7.558495,9.727791,1.365742,3.44397,3.593711,-0.159769,-82.417236,-51.521683,-627.504333
1733469499,7.64289,9.485528,1.729811,3.299146,3.851453,0.477499,-81.996475,-51.576157,-629.678467
1733469499,7.782652,9.160664,2.440739,3.150388,4.083257,1.171514,-81.414948,-51.688858,-631.364685
1733469499,7.162554,8.921544,3.03914,2.982974,4.318285,1.856073,-80.645981,-51.386444,-632.72113
1733469499,6.435464,8.71235,4.026748,2.843142,4.455496,2.529218,-79.992188,-50.869919,-634.187805
1733469499,5.497237,8.369231,5.5125,2.686941,4.436979,3.159819,-79.502716,-49.908463,-636.092041
1733469499,4.099921,8.102427,7.297826,2.491879,4.294155,3.723521,-78.930695,-48.824554,-637.463562
1733469499,2.759766,7.69661,9.509769,2.24857,3.952268,4.264925,-77.902802,-47.523636,-639.328003
1733469499,1.183783,6.936451,11.094581,1.943041,3.51003,4.726484,-77.045547,-45.976791,-641.194946
1733469499,-0.772729,5.898415,12.112865,1.575409,3.113289,5.067881,-76.495071,-43.910843,-641.755432
1733469499,-2.426374,4.951808,13.090896,1.118078,2.768556,5.333502,-75.572281,-42.008377,-642.322449
1733469499,-3.662231,4.622754,13.976302,0.595512,2.427037,5.602404,-74.646729,-39.699127,-644.053223
1733469499,-4.984279,4.974852,14.516045,0.09697,2.150654,5.932566,-73.26149,-37.160202,-644.973816
1733469499,-6.991069,5.220108,14.832528,-0.455943,2.067348,6.2765,-72.069946,-34.51059,-645.891663
1733469499,-10.233716,4.435707,15.34773,-1.250404,2.251477,6.397316,-70.90625,-31.53653,-646.375244
1733469499,-13.23799,3.650559,15.788264,-2.313156,2.571971,6.256446,-69.42746,-28.269211,-647.049683
1733469499,-15.08362,3.229329,15.660024,-3.430637,2.797836,5.984754,-67.561386,-24.827744,-647.480591
1733469499,-16.161011,3.080889,15.027207,-4.31374,2.661651,5.676988,-65.315262,-21.928772,-648.174561
1733469499,-16.930447,3.364751,14.140305,-4.901442,2.151727,5.393815,-63.391357,-18.403046,-647.978333
1733469499,-18.391808,3.854216,13.521254,-5.303102,1.317764,5.090797,-61.571182,-14.96254,-647.0495
1733469499,-20.820576,4.014029,12.382212,-5.618475,0.496166,4.667403,-59.794174,-11.849106,-644.689087
1733469499,-23.618949,3.598036,10.705074,-5.966319,-0.028963,4.106807,-58.525604,-8.598465,-643.626953
1733469499,-26.91367,3.625869,9.281871,-6.433098,-0.325139,3.331058,-56.884644,-6.078796,-641.491516
1733469499,-29.688699,4.595072,7.504326,-6.945144,-0.449746,2.425583,-55.981003,-3.519638,-638.872314
1733469499,-31.333965,6.583905,5.612607,-7.442673,-0.543254,1.518509,-54.98555,-1.23819,-635.672607
1733469499,-31.770757,9.043349,3.422062,-7.866319,-0.687406,0.743123,-54.526428,0.293137,-632.214355
1733469499,-32.322022,11.574319,0.790236,-8.194477,-0.877113,0.07316,-54.256287,1.847382,-628.756409
1733469499,-33.579576,13.950265,-2.463035,-8.388437,-1.058313,-0.593477,-54.544312,2.761475,-624.75
1733469499,-34.689139,16.039505,-6.402993,-8.433024,-1.124177,-1.251921,-54.972427,3.357056,-620.961426
1733469499,-35.255068,17.665767,-11.232996,-8.240552,-0.91489,-1.878811,-55.607513,3.283966,-617.17334
1733469499,-34.800769,18.895937,-15.922489,-7.768863,-0.505533,-2.4181,-56.447891,2.721207,-613.128662
1733469499,-33.589452,20.321834,-19.506758,-7.071848,-0.103856,-2.841658,-57.5522,1.662552,-611.225586
1733469499,-31.805323,20.965425,-22.103868,-6.215951,0.249051,-3.151033,-59.302719,0.599564,-608.787842
1733469499,-30.044238,21.066131,-23.503429,-5.335092,0.583343,-3.40652,-60.780472,-0.681534,-606.848267
1733469499,-28.56103,21.465365,-23.835175,-4.567513,0.925788,-3.620786,-62.230911,-2.090469,-605.481628
1733469499,-26.885837,21.775264,-23.949498,-3.953239,1.306312,-3.805494,-63.991028,-3.798309,-604.338989
1733469499,-25.193735,21.666627,-24.222138,-3.384028,1.69958,-3.961627,-66.139099,-5.482895,-603.843445
1733469499,-23.572112,21.312435,-24.771308,-2.726788,2.088537,-4.12435,-67.925735,-7.43335,-604.594299
1733469499,-21.945851,20.655825,-25.070583,-1.977731,2.433173,-4.321177,-69.884583,-9.065201,-604.708313
1733469499,-20.117429,20.137181,-24.782531,-1.171509,2.671173,-4.527541,-72.05835,-10.895721,-605.782349
1733469499,-18.098369,19.912426,-23.975835,-0.321441,2.770561,-4.72051,-74.182877,-13.295609,-606.61969
1733469499,-16.072425,19.579332,-22.735938,0.541557,2.696453,-4.919259,-75.863037,-15.486176,-608.598755
1733469499,-13.957298,19.409942,-20.817434,1.343665,2.447619,-5.105776,-77.468735,-17.594879,-610.299683
1733469499,-11.880178,19.403957,-18.574965,2.015884,2.07203,-5.252424,-78.941605,-20.001724,-611.375916
1733469499,-10.128072,19.179949,-16.613964,2.515259,1.748043,-5.355872,-80.113403,-22.518692,-613.155334
1733469499,-8.617181,18.860024,-15.108909,2.856362,1.582902,-5.390413,-81.488281,-25.117432,-614.254517
1733469499,-7.287351,18.309807,-14.105289,3.097374,1.613798,-5.351551,-82.018066,-27.86409,-615.681763
1733469499,-6.052991,17.733852,-13.171401,3.294094,1.780323,-5.242841,-82.982635,-30.599838,-616.909424
1733469499,-4.915446,17.167623,-12.11915,3.463278,1.985795,-5.088295,-83.367966,-33.295242,-618.059509
1733469499,-3.800795,16.54124,-11.122713,3.625545,2.191079,-4.889597,-83.807281,-36.036682,-619.548157
1733469499,-2.555511,15.906178,-10.108619,3.788094,2.376748,-4.651402,-83.748779,-38.865509,-620.58728
1733469499,-1.310825,15.165622,-9.093328,3.92643,2.534224,-4.380118,-83.75209,-41.269455,-622.610779
1733469499,-0.089034,14.401572,-8.060529,4.047701,2.664956,-4.069148,-83.673386,-43.806717,-623.607422
1733469499,0.975338,13.69229,-6.974609,4.131381,2.791171,-3.730708,-83.338715,-46.056519,-624.479736
1733469499,1.721431,12.807782,-5.785738,4.180908,2.865145,-3.394823,-82.919312,-48.194901,-625.874573
1733469499,2.424129,12.146084,-4.731092,4.197005,2.955443,-3.035708,-82.231323,-50.136078,-626.877808
1733469499,3.05964,11.793089,-3.960458,4.165647,3.101584,-2.631847,-81.794724,-51.881042,-627.822388
1733469499,3.591153,11.273398,-3.537882,4.1168,3.346135,-2.180695,-81.262848,-53.529617,-628.786926
1733469499,3.945644,10.80608,-3.314473,4.076721,3.707198,-1.710347,-80.403137,-54.801605,-629.692627
1733469499,4.042909,10.538228,-2.71697,4.054411,4.085164,-1.219199,-79.72641,-56.056641,-631.269897
1733469499,4.104111,10.266636,-1.81271,4.044285,4.408597,-0.709127,-78.736313,-57.022736,-632.342773
1733469499,4.24492,9.915885,-0.549918,4.018569,4.628179,-0.198373,-78.199707,-57.702774,-634.173523
1733469499,4.488679,9.539697,0.832284,3.954727,4.685231,0.296784,-77.548676,-58.33902,-635.224915
1733469499,4.607791,9.128193,2.41545,3.858658,4.562569,0.77978,-76.848587,-58.75119,-636.466675
1733469499,4.489278,8.504803,3.767127,3.703569,4.398916,1.204792,-76.130966,-58.805725,-637.431519
1733469499,4.370166,7.949647,5.112967,3.453926,4.158736,1.613158,-75.502472,-59.041504,-638.19635
1733469499,4.479701,7.54383,6.166117,3.196811,3.855226,2.049691,-75.116806,-58.66449,-638.907959
1733469499,4.767903,7.417686,6.826916,3.011685,3.529867,2.557332,-74.63681,-58.090088,-639.964233
1733469499,4.846014,7.408857,7.454048,2.869607,3.272423,3.14353,-74.046188,-57.508942,-640.793518
1733469499,4.513669,7.116465,8.286332,2.625643,3.130749,3.711551,-74.035721,-56.510132,-641.797607
1733469499,3.860501,6.744616,9.558551,2.205901,3.001513,4.245578,-73.645737,-55.288666,-641.793457
1733469499,2.702455,6.460753,10.534637,1.655693,2.967176,4.70741,-73.401199,-53.481079,-644.068237
1733469499,1.413327,6.1109,11.299285,1.05056,2.951377,5.11541,-72.86702,-51.505569,-644.758911
1733469499,0.134524,5.899313,12.13142,0.462007,2.861443,5.498951,-72.763794,-49.08522,-645.846924
1733469499,-1.459266,5.546916,12.903251,-0.13401,2.7343,5.777626,-72.098022,-46.624313,-646.958801
1733469500,-3.095403,5.299715,13.698126,-0.774834,2.582551,5.932178,-71.90126,-43.80719,-647.66272
1733469500,-4.544195,5.003732,14.580239,-1.477784,2.334206,5.965443,-71.053024,-40.932648,-648.728577
1733469500,-5.4917,4.902577,14.870087,-2.215597,2.011028,5.939485,-70.053131,-37.885315,-649.173157
1733469500,-6.134693,5.457882,14.33199,-2.794346,1.611688,6.006312,-68.994095,-34.40451,-649.702271
1733469500,-7.056311,5.585672,13.493122,-3.166814,1.211989,6.084525,-68.066635,-31.075119,-649.865356
1733469500,-8.713398,5.440674,13.188609,-3.468758,0.899125,6.150441,-66.507294,-27.537735,-648.868896
1733469500,-10.792463,5.349395,13.573477,-3.866711,0.66634,6.166455,-65.070694,-23.881012,-649.460938
1733469500,-12.61849,5.825841,14.407258,-4.348025,0.362755,6.239073,-63.676331,-20.02829,-648.452393
1733469500,-14.886098,6.357503,15.142128,-4.882534,-0.016011,6.330105,-61.337875,-16.129532,-647.148193
1733469500,-18.37041,6.543503,15.061324,-5.488843,-0.237806,6.344823,-59.448013,-12.329285,-645.357605
1733469500,-23.202059,6.929867,14.809334,-6.30404,-0.174145,6.092659,-57.339447,-8.530396,-643.059631
1733469500,-28.673857,8.341249,14.640992,-7.370362,0.015526,5.491526,-55.422775,-5.006531,-640.673462
1733469500,-33.638833,10.164434,13.260884,-8.485986,0.164588,4.527629,-53.872192,-1.706436,-637.038879
1733469500,-37.01331,12.315923,10.711509,-9.389803,-0.027445,3.359042,-52.623993,1.208664,-633.000671
1733469500,-38.994362,14.446463,6.587945,-9.917913,-0.507826,2.144991,-51.713348,3.347702,-628.66449
1733469500,-39.986759,16.076017,1.137395,-10.016659,-1.001618,1.023412,-51.289062,4.342545,-623.546936
1733469500,-40.397963,17.578827,-4.863372,-9.668844,-1.2278,0.058571,-51.281158,5.17334,-619.78949
1733469500,-39.98227,18.561647,-9.846753,-9.02163,-1.121736,-0.720924,-51.840225,5.353333,-615.835693
1733469500,-38.864327,20.292505,-13.038074,-8.294296,-0.69265,-1.288209,-52.524185,4.973618,-611.908142
1733469500,-37.244949,21.867142,-14.430602,-7.678636,-0.106868,-1.671155,-53.511627,4.299438,-608.914795
1733469500,-35.753362,23.13113,-14.842404,-7.263086,0.553599,-1.96396,-55.057892,3.207916,-606.458984
1733469500,-34.489073,24.082227,-15.10861,-6.983201,1.150968,-2.263079,-56.506149,2.035217,-603.778442
1733469500,-33.206679,24.017434,-15.861885,-6.709548,1.587854,-2.637312,-58.368469,0.583344,-602.185303
1733469500,-31.920394,23.49894,-17.859847,-6.231113,1.982697,-3.053461,-60.422241,-1.392456,-600.989197
1733469500,-30.193127,22.580913,-19.856461,-5.505449,2.332494,-3.500958,-62.437912,-3.312988,-600.395447
1733469500,-28.201301,22.198888,-20.602255,-4.667085,2.534694,-3.978094,-64.735825,-5.378891,-598.979736
1733469500,-25.762059,22.314708,-20.434511,-3.827312,2.54053,-4.395275,-66.73468,-7.423279,-599.823242
1733469500,-23.32132,22.433221,-20.116531,-3.009961,2.46833,-4.725963,-68.464752,-9.467636,-600.046997
1733469500,-21.57041,22.907572,-19.615395,-2.276014,2.429876,-4.993845,-70.567795,-11.619156,-600.922974
1733469500,-19.906141,23.233632,-18.962676,-1.677817,2.411721,-5.18052,-70.567795,-11.619156,-600.922974
1733469500,-18.003499,23.128587,-19.167081,-1.061791,2.52006,-5.272756,-74.436981,-16.181793,-602.488525
1733469500,-16.097864,22.723518,-19.293973,-0.405562,2.716432,-5.281462,-76.3069,-18.516953,-604.049744
1733469500,-14.105738,22.043564,-19.043181,0.257225,2.968806,-5.201546,-76.3069,-18.516953,-604.049744
1733469500,-12.537985,21.597195,-18.349162,0.885187,3.284571,-5.087882,-77.748199,-20.789886,-606.053406
1733469500,-11.22312,21.40102,-16.951546,1.417134,3.571592,-4.954446,-79.285568,-23.081665,-608.054993
1733469500,-10.05011,21.410897,-15.441254,1.865366,3.831462,-4.806949,-80.629562,-25.367966,-610.139404
1733469500,-8.894758,21.335479,-14.101549,2.259142,4.045787,-4.654104,-81.36702,-27.858398,-612.148071
1733469500,-7.726388,20.864121,-12.830976,2.625379,4.152113,-4.49081,-82.404602,-30.273483,-614.737549
1733469500,-6.457611,20.155886,-11.720216,2.996286,4.140861,-4.328881,-83.078568,-32.550232,-617.267334
1733469500,-5.237466,19.36984,-10.563068,3.402434,3.965436,-4.162042,-83.583099,-34.982269,-619.703247
1733469500,-4.146009,18.779819,-9.288904,3.854776,3.641851,-3.965471,-83.703964,-37.082764,-621.677368
1733469500,-3.05575,18.136826,-8.247725,4.272354,3.345318,-3.73699,-83.635849,-39.526474,-623.635193
1733469500,-2.075773,17.375769,-7.359177,4.571724,3.194058,-3.486411,-83.41449,-41.756104,-625.027954
1733469500,-1.281496,16.670677,-6.493973,4.750241,3.184119,-3.204847,-83.097824,-44.042404,-626.421753
1733469500,-0.458041,16.038757,-5.720047,4.836732,3.277627,-2.900004,-82.681107,-46.29512,-628.149658
1733469500,0.314987,15.202881,-4.889558,4.864619,3.36405,-2.592743,-82.250015,-48.258408,-629.260376
1733469500,1.15206,14.280066,-4.26931,4.906771,3.449423,-2.279472,-81.597031,-50.201263,-630.104492
1733469500,2.00245,13.383887,-3.933673,4.962883,3.608651,-1.961873,-81.059311,-51.957764,-631.428406
1733469500,2.736423,12.702587,-3.079692,5.014258,3.715971,-1.627724,-80.27562,-53.640106,-632.670288
1733469500,3.532645,12.393136,-1.832911,5.059171,3.700511,-1.24015,-79.689682,-55.222076,-633.378357
1733469500,4.238485,12.202498,-0.697611,5.071027,3.593624,-0.811055,-78.697678,-56.733932,-634.289062
1733469500,4.76895,12.148628,0.337134,5.048277,3.420056,-0.334292,-78.222824,-57.812012,-634.532593
1733469500,5.075558,12.089521,1.121833,4.987344,3.18843,0.138741,-77.699783,-58.715652,-635.335938
1733469500,5.182549,11.801918,1.357512,4.932177,2.970205,0.58868,-77.090668,-59.333008,-635.491394
1733469500,5.635502,11.816133,1.355417,4.956027,2.818869,1.08235,-76.791748,-59.994263,-635.910583
1733469500,6.289568,11.975198,1.464653,5.06791,2.749196,1.67567,-76.543671,-60.158661,-636.008972
1733469500,6.56131,12.196662,1.930924,5.204427,2.83759,2.334544,-76.613144,-60.158707,-635.905212
1733469500,6.127959,12.483966,3.02238,5.230305,3.176111,3.002661,-76.06073,-59.80661,-636.034363
1733469500,5.058798,12.382362,5.01271,4.973369,3.710193,3.617939,-76.086243,-59.244278,-636.79895
1733469500,3.580977,11.571027,7.661894,4.393591,4.276278,4.088609,-75.921799,-58.383041,-637.899414
1733469500,2.24636,10.645219,10.651504,3.65165,4.594575,4.48103,-75.514221,-57.321838,-639.058838
1733469500,1.587206,10.020332,13.657873,2.887282,4.452639,4.854402,-75.548569,-55.798981,-640.372131
1733469500,1.080683,9.400234,16.013019,2.133849,3.906974,5.197692,-75.011566,-54.261505,-641.727539
1733469500,0.219967,8.358906,17.179145,1.404182,3.229149,5.454691,-74.637497,-52.303238,-642.829712
1733469500,-1.064073,7.703045,17.093253,0.681361,2.682775,5.633206,-74.309113,-49.931015,-643.772217
1733469500,-2.358588,7.384167,16.325762,0.013716,2.294653,5.801701,-73.999069,-47.267075,-644.650513
1733469500,-3.644573,6.752995,14.979921,-0.471593,2.051239,5.991337,-73.354492,-44.618912,-645.700623
1733469500,-5.509507,5.626823,13.78297,-0.778498,1.992165,6.135918,-72.657593,-41.910385,-646.567566
1733469500,-7.949348,4.213346,14.300417,-1.16499,1.926716,6.113343,-71.876831,-38.954712,-647.03949
1733469500,-9.804555,3.599383,15.276353,-1.644024,1.844431,6.044548,-70.871704,-35.781754,-647.639893
1733469500,-11.35091,3.124433,16.474053,-2.229064,1.693535,6.023427,-69.228897,-32.402573,-648.112
1733469500,-13.62181,2.755876,17.507151,-2.929348,1.59997,5.991044,-67.962982,-29.179321,-648.432678
1733469500,-16.551565,2.803909,18.852842,-3.835248,1.477781,5.859678,-66.181961,-25.707489,-648.451538
1733469500,-19.466655,3.407847,19.785683,-4.876651,1.195107,5.626266,-64.75174,-21.94783,-648.255493
1733469500,-22.557569,4.631284,19.072809,-5.814488,0.734374,5.214551,-63.180267,-18.185028,-646.791626
1733469500,-25.317336,5.965303,17.356615,-6.531745,0.067322,4.663583,-62.024582,-14.475647,-644.673645
1733469500,-27.284023,8.003816,15.088558,-7.087634,-0.62565,4.131803,-60.087082,-11.086365,-642.386658
1733469500,-29.131299,10.81416,11.597662,-7.554896,-0.941663,3.74767,-58.709412,-7.774643,-639.611938
1733469500,-30.777313,13.45257,8.050353,-8.102609,-0.766397,3.496719,-57.225906,-4.627441,-636.576294
1733469500,-32.591519,15.431976,4.907964,-8.777902,-0.249271,3.262374,-55.869232,-1.704132,-633.192017
1733469500,-34.913446,16.800263,1.239748,-9.449999,0.461298,2.850802,-54.763611,0.896805,-629.609741
1733469500,-36.702812,17.992874,-2.438644,-9.967078,1.015137,2.212679,-53.881714,2.484497,-626.221924
1733469500,-37.878964,19.197756,-6.15639,-10.177189,1.136809,1.356944,-53.670746,3.761703,-621.995239
1733469500,-38.721423,19.927389,-10.903194,-9.95055,0.917527,0.383095,-53.841721,4.358765,-618.520569
1733469500,-39.770533,20.039318,-16.519842,-9.30466,0.727126,-0.730446,-54.58017,4.226471,-614.736572
1733469500,-39.915083,19.682283,-21.676054,-8.282904,0.629166,-1.869319,-55.451309,3.490021,-610.626099
1733469500,-38.336855,19.457827,-24.960001,-6.998546,0.536561,-2.817225,-56.472778,2.499435,-608.961792
1733469500,-35.689317,19.813066,-26.38096,-5.709959,0.489867,-3.493592,-58.350357,1.054047,-606.929993
1733469500,-33.111659,20.396952,-26.062531,-4.691549,0.541496,-3.956976,-60.021454,-0.282394,-605.406189
1733469500,-30.992791,20.859183,-24.944589,-4.040268,0.771854,-4.280916,-62.05719,-2.048004,-603.939087
1733469500,-29.228713,21.738004,-24.104673,-3.706014,1.151667,-4.559833,-64.209305,-4.116257,-603.54895
1733469500,-27.502344,22.278944,-24.376115,-3.356934,1.600474,-4.799603,-66.578934,-6.191986,-603.642822
1733469500,-25.467422,21.862353,-25.46009,-2.739107,2.024182,-5.040082,-68.994644,-8.427734,-603.795654
1733469500,-23.125594,21.456386,-25.528624,-1.936225,2.282811,-5.302869,-71.177856,-10.789993,-604.462097
1733469500,-20.644602,21.291635,-24.731205,-1.046094,2.376789,-5.567514,-73.42218,-13.105942,-605.736755
1733469500,-18.140417,21.564425,-23.374441,-0.186508,2.3868,-5.770398,-75.336975,-15.641296,-606.287415
1733469500,-15.688455,21.899314,-21.642536,0.538821,2.401079,-5.873777,-77.167328,-18.228256,-607.973633
1733469500,-13.32044,22.074988,-20.050092,1.126675,2.503915,-5.855684,-78.753693,-20.932678,-609.517761
1733469500,-11.029189,21.980567,-18.538154,1.633561,2.639087,-5.726468,-80.270981,-23.585648,-611.686279
1733469500,-8.792257,21.585673,-16.77677,2.121275,2.666161,-5.523687,-81.682449,-26.237213,-613.119751
1733469501,-6.921787,20.909012,-15.060576,2.573835,2.608752,-5.290293,-82.575455,-28.974594,-614.535767
1733469501,-5.356727,20.161123,-13.565547,2.963711,2.558296,-5.048574,-83.119049,-31.616806,-616.629395
1733469501,-3.96001,19.281404,-12.202049,3.251324,2.541729,-4.799891,-83.594147,-34.119202,-618.099121
1733469501,-2.812139,18.345421,-10.922947,3.454288,2.569997,-4.542764,-83.87326,-36.55722,-619.524353
1733469501,-1.989282,17.489045,-9.783456,3.61411,2.612862,-4.292868,-84.004257,-38.992157,-621.18042
1733469501,-1.310975,16.671574,-8.961796,3.778809,2.693558,-4.042671,-84.096344,-41.480728,-622.063354
1733469501,-0.649577,15.780333,-8.113201,3.977589,2.758443,-3.811795,-83.835831,-43.770767,-624.048096
1733469501,0.01646,14.841207,-7.295581,4.172265,2.855887,-3.577171,-83.668472,-45.867874,-625.263489
1733469501,0.855029,13.954604,-6.231059,4.326146,2.987929,-3.331073,-83.172974,-48.136597,-626.302734
1733469501,1.74253,13.159729,-4.844368,4.401862,3.077284,-3.060729,-82.858887,-49.903244,-627.378174
1733469501,2.605191,12.462418,-3.557035,4.397087,3.120246,-2.772534,-82.121674,-51.894608,-628.385742
1733469501,3.404106,11.793688,-2.782661,4.353651,3.208143,-2.466515,-81.345871,-53.589142,-629.178711
1733469501,4.036923,11.113136,-1.959504,4.28149,3.278825,-2.138686,-80.649872,-55.21759,-630.588501
1733469501,4.633379,10.80578,-1.520019,4.09717,3.61309,-1.315945,-80.077988,-56.400055,-631.368958
1733469501,5.748029,10.316765,-0.061651,4.03354,3.737231,-0.812036,-79.356415,-57.639893,-632.111206
1733469501,6.207117,10.246435,0.78021,3.978995,3.807069,-0.256848,-78.445786,-58.585251,-632.249756
1733469501,6.459257,9.933543,1.569399,3.896559,3.877541,0.33676,-77.916138,-59.078903,-633.784241
1733469501,6.373814,9.526229,2.108244,3.757273,4.045506,0.938553,-77.038559,-59.461075,-634.539917
1733469501,6.159682,9.168296,2.547281,3.584171,4.301891,1.547312,-76.65625,-59.65184,-635.515686
1733469501,6.116886,8.99726,3.355174,3.396358,4.523114,2.180598,-75.920334,-59.355896,-636.474121
1733469501,6.169109,9.044246,4.449923,3.213711,4.633248,2.87239,-75.284058,-59.046722,-637.539307
1733469501,5.899163,8.89431,5.979668,2.997966,4.541133,3.565538,-74.996674,-58.198166,-639.301758
1733469501,5.158457,8.657433,7.277774,2.724221,4.380843,4.242994,-74.472809,-57.266083,-640.062622
1733469501,4.07942,8.628852,8.194454,2.400035,4.264235,4.916698,-73.926361,-55.686569,-641.745911
1733469501,2.652177,8.552537,8.93127,1.981899,4.246515,5.548381,-73.539368,-53.972397,-643.116089
1733469501,0.862062,8.379855,9.522189,1.457278,4.34864,6.090036,-72.888382,-52.123093,-643.934204
1733469501,-1.146224,8.000225,10.577583,0.80007,4.376046,6.459214,-72.039078,-49.774048,-646.346252
1733469501,-2.689886,7.727884,11.338939,0.074942,4.291088,6.739211,-70.978378,-47.159424,-647.737732
1733469501,-4.264372,7.238719,11.519552,-0.622341,4.176601,6.902224,-69.923203,-44.179047,-649.299744
1733469501,-5.833772,6.670994,11.71842,-1.298147,4.034289,6.96129,-68.453217,-41.193115,-650.756775
1733469501,-7.236624,6.337003,12.10224,-1.957332,3.837363,6.959897,-67.039673,-37.980865,-652.139282
1733469501,-8.798242,5.939116,12.898462,-2.622382,3.480936,6.885096,-64.780258,-34.653763,-653.231873
1733469501,-10.195857,5.993585,13.653982,-3.268195,2.99146,6.823936,-62.787506,-31.11441,-653.611023
1733469501,-11.969811,6.155792,14.005032,-3.915352,2.496446,6.766171,-60.804459,-27.320587,-654.035583
1733469501,-14.508413,6.169708,13.757382,-4.571639,2.130538,6.665362,-58.575409,-23.6754,-654.345154
1733469501,-17.579575,6.256647,13.329718,-5.236595,1.910684,6.461935,-56.287704,-19.84906,-652.596802
1733469501,-21.596746,6.105514,13.113342,-5.999033,1.689685,5.992132,-53.845306,-16.110489,-652.883667
1733469501,-25.82775,5.572355,12.504017,-6.772315,1.311309,5.176614,-52.047729,-12.274277,-651.383911
1733469501,-29.519309,5.07885,11.048492,-7.348972,0.723132,4.060329,-50.63678,-8.727875,-648.987915
1733469501,-32.449962,6.335656,9.383475,-7.716767,-0.061182,2.807807,-48.99176,-5.720184,-646.461609
1733469501,-34.40393,8.971523,7.673716,-7.986662,-0.912671,1.586639,-48.493774,-2.733154,-642.810913
1733469501,-35.474138,12.278663,5.290587,-8.244758,-1.598594,0.526421,-48.2379,-0.238113,-639.63623
1733469501,-35.581578,15.948376,2.259079,-8.550762,-1.963803,-0.232047,-47.8591,2.094528,-635.464661
1733469501,-35.137004,19.116653,-1.505055,-8.882773,-1.912323,-0.681937,-48.274094,3.794708,-631.080444
1733469501,-34.624495,21.610363,-6.047903,-9.146993,-1.41509,-0.883795,-48.558212,5.055588,-626.805969
1733469501,-34.286015,23.274783,-10.982053,-9.247439,-0.560424,-1.014144,-49.242081,5.866165,-621.541199
1733469501,-34.233792,24.292468,-15.140482,-9.160988,0.383561,-1.258913,-50.040634,6.294388,-618.738281
1733469501,-34.503139,24.82443,-18.173038,-8.857035,1.071337,-1.735886,-51.351486,6.214172,-614.684937
1733469501,-34.367867,24.572889,-20.900483,-8.272898,1.318631,-2.409213,-52.834656,5.427658,-611.447754
1733469501,-33.782036,24.302045,-24.124275,-7.300146,1.322555,-3.173223,-54.567719,4.412369,-609.227234
1733469501,-32.207848,23.773225,-26.649709,-6.039654,1.190555,-3.867742,-56.452499,2.985214,-607.08252
1733469501,-30.154371,23.040151,-27.883321,-4.742219,1.10075,-4.461516,-58.381393,1.490341,-605.934875
1733469501,-28.179903,23.403471,-27.738323,-3.618262,1.152508,-4.92329,-60.54274,-0.329086,-604.862061
1733469501,-25.967511,23.941268,-26.465804,-2.780568,1.348304,-5.239901,-63.022293,-2.248871,-604.328979
1733469501,-23.561039,24.091953,-25.111734,-2.158542,1.630411,-5.455631,-65.310791,-4.323242,-604.525024
1733469501,-21.04189,24.236054,-24.058435,-1.604293,1.90631,-5.56873,-67.828857,-6.688843,-604.300659
1733469501,-18.710536,24.288877,-23.115119,-1.060732,2.111695,-5.631125,-70.007263,-8.617401,-605.534058
1733469501,-16.618154,23.968054,-22.344186,-0.522332,2.2821,-5.668783,-72.529068,-11.030228,-606.503174
1733469501,-14.603433,23.404668,-21.801451,0.063338,2.458801,-5.685902,-74.401443,-13.507462,-607.973938
1733469501,-12.761095,22.872108,-21.173571,0.671127,2.642495,-5.677176,-76.364548,-15.978928,-609.250366
1733469501,-11.02874,22.452973,-20.397102,1.296967,2.859713,-5.620593,-77.925247,-18.558945,-611.304016
1733469501,-9.473706,22.224476,-19.083284,1.922911,3.072341,-5.508092,-79.419998,-20.984192,-613.139648
1733469501,-8.000374,21.988947,-17.217303,2.510221,3.210106,-5.361267,-80.823486,-23.523407,-615.273804
1733469501,-6.571186,21.559337,-15.081974,3.037506,3.22226,-5.19625,-81.838196,-26.408081,-617.806335
1733469501,-5.151723,20.990415,-13.085958,3.506227,3.130974,-4.994245,-82.708923,-29.086288,-619.369873
1733469501,-3.818153,20.19943,-11.260828,3.909597,2.955215,-4.779668,-83.027145,-31.746582,-620.779846
1733469501,-2.682404,19.31178,-9.636811,4.229685,2.74962,-4.550654,-83.546356,-34.314926,-622.805786
1733469501,-1.443554,18.373104,-8.491485,4.467249,2.6364,-4.286907,-83.702866,-36.887054,-624.454346
1733469501,-0.236727,17.261745,-7.286902,4.617676,2.600403,-3.990702,-83.345276,-39.532013,-625.777649
1733469501,0.851288,16.299126,-6.083068,4.665931,2.63832,-3.649795,-83.136322,-41.962601,-627.635559
1733469501,1.716942,15.338752,-4.921132,4.636476,2.699538,-3.283588,-82.770294,-44.126312,-628.466064
1733469501,2.451662,14.361319,-4.027346,4.540705,2.788985,-2.90401,-82.395935,-45.886337,-629.502075
1733469501,3.137152,13.367426,-3.830573,4.434061,3.052601,-2.485378,-81.90332,-47.887009,-630.711548
1733469501,3.622876,12.455086,-3.651158,4.334928,3.450612,-2.044464,-81.146118,-49.733688,-632.017456
1733469501,3.959112,11.588385,-3.104681,4.229538,3.849189,-1.608642,-80.382233,-51.161392,-633.558716
1733469501,4.418499,10.873716,-2.232144,4.184416,4.132614,-1.154997,-79.679352,-52.702118,-634.075317
1733469501,5.082441,10.45907,-0.973842,4.184311,4.202533,-0.667007,-79.014801,-53.682083,-636.211182
1733469501,5.687875,10.035446,0.17343,4.183507,4.148513,-0.160917,-78.207108,-54.458267,-637.217407
1733469501,5.985504,9.570821,1.142483,4.157533,4.063839,0.35874,-77.044281,-55.212372,-638.317993
1733469501,6.025906,9.101408,2.129493,4.074369,3.975727,0.881394,-76.581512,-55.740784,-639.255737
1733469501,5.927594,8.836998,2.878878,3.963209,3.954704,1.422378,-75.710312,-56.213455,-640.54071
1733469501,5.818658,8.765023,3.578434,3.854381,3.967204,2.004419,-75.710312,-56.213455,-640.54071
1733469501,5.699098,8.783129,4.626795,3.740865,3.934901,2.597721,-75.040573,-56.103714,-641.210693
1733469501,5.293131,8.470985,5.94989,3.562961,3.780918,3.14522,-74.470428,-55.801819,-642.182251
1733469501,4.637718,8.074146,7.12275,3.297345,3.570648,3.618502,-74.19696,-55.350998,-643.02832
1733469501,3.854365,7.877672,8.048109,2.994455,3.346609,4.060791,-73.575485,-54.597214,-643.915894
1733469501,3.181445,7.753921,8.928277,2.689002,3.072587,4.555836,-73.05661,-53.871689,-644.336182
1733469501,2.152537,7.77083,9.429863,2.440657,2.858912,5.098657,-72.498001,-52.50853,-645.616211
1733469501,0.581641,7.478738,9.944915,2.146644,2.762,5.607506,-72.115234,-51.146286,-646.293091
1733469501,-1.381454,6.776489,10.82673,1.698652,2.769998,5.97536,-71.759186,-49.398666,-646.792358
1733469501,-3.749619,5.573851,12.112715,1.035706,2.82267,6.084874,-71.482025,-47.45134,-648.075928
1733469501,-5.660641,4.310162,13.779828,0.142153,2.72972,5.933567,-70.990692,-45.356705,-648.981567
1733469501,-6.633734,3.70398,14.829984,-0.820075,2.391368,5.678911,-70.318466,-42.817307,-649.951416
1733469501,-7.091625,3.913023,14.283957,-1.598142,1.954731,5.458183,-69.46405,-40.309036,-650.696838
1733469501,-7.432799,4.359093,12.835016,-2.076017,1.521601,5.338972,-68.383087,-37.606522,-651.309875
1733469501,-7.801805,4.633977,11.731887,-2.3765,1.187702,5.306057,-67.465546,-34.884598,-651.685181
1733469501,-8.568698,4.952107,11.369016,-2.668535,0.983046,5.345261,-66.340622,-31.915573,-651.317322
1733469501,-9.891195,5.365556,11.826009,-3.080604,0.874558,5.395832,-65.091064,-29.161392,-651.586914
1733469501,-11.399542,5.911284,12.797457,-3.643773,0.785584,5.493286,-63.671494,-25.960648,-651.478394
1733469501,-13.544897,6.389825,13.756933,-4.302821,0.66756,5.57956,-61.997406,-22.727142,-650.581909
1733469502,-16.862811,6.6273,14.85243,-5.107093,0.476918,5.533174,-60.476669,-19.153351,-650.609558
1733469502,-20.671088,7.215825,15.332318,-6.035608,0.172121,5.326781,-58.588028,-15.338074,-648.572754
1733469502,-24.729859,8.359355,14.197466,-6.900561,-0.103647,4.936646,-57.207947,-11.647827,-647.161438
1733469502,-28.496985,9.399187,12.201151,-7.69385,-0.340377,4.325808,-55.420883,-8.060287,-644.684448
1733469502,-31.335162,10.811616,9.630975,-8.379706,-0.581504,3.58859,-53.837799,-4.699738,-641.918945
1733469502,-33.564463,12.575993,6.459706,-8.890699,-0.876354,2.831525,-52.665787,-1.567795,-638.737244
1733469502,-36.081517,14.010868,2.135778,-9.179277,-0.973869,1.97993,-51.485657,1.134079,-634.862793
1733469502,-37.781999,15.009549,-2.525883,-9.280041,-0.782558,1.107788,-50.864746,3.404388,-630.508118
1733469502,-38.23136,16.124649,-6.506093,-9.194794,-0.366612,0.311828,-50.249069,4.841599,-626.281128
1733469502,-37.748629,18.094778,-9.191939,-9.019351,0.025842,-0.368074,-50.561478,5.639786,-622.33429
1733469502,-37.097407,20.570681,-10.868478,-8.871604,0.228072,-0.974963,-50.917542,6.105499,-618.579956
1733469502,-36.763266,22.071995,-13.583653,-8.646546,0.472517,-1.608425,-51.78299,6.114868,-614.523987
1733469502,-36.043659,22.45806,-17.135002,-8.171214,0.866239,-2.236036,-52.879364,5.412323,-610.784424
1733469502,-34.48638,22.764967,-20.12536,-7.393305,1.259051,-2.784148,-54.321411,4.352524,-608.357239
1733469502,-32.593913,22.820932,-21.937172,-6.4134,1.479172,-3.296543,-56.021423,2.948425,-606.022522
1733469502,-30.798112,22.935704,-22.667104,-5.378571,1.521049,-3.775402,-57.77446,1.456909,-604.231201
1733469502,-28.931084,23.189339,-22.938098,-4.411835,1.536189,-4.181258,-60.112915,-0.210617,-602.979248
1733469502,-27.274147,23.25533,-23.020698,-3.553782,1.671097,-4.574359,-62.026917,-2.138458,-602.260559
1733469502,-25.201666,23.031322,-22.504448,-2.797816,1.854246,-4.89223,-64.194962,-3.796616,-602.375061
1733469502,-22.85071,22.828114,-21.570859,-2.127065,2.086093,-5.095694,-66.349091,-6.029465,-602.39856
1733469502,-20.677672,22.885276,-20.287717,-1.549796,2.305624,-5.202644,-68.57222,-8.019974,-602.835083
1733469502,-18.699762,22.698229,-19.098996,-1.031427,2.486604,-5.244719,-71.177551,-10.155228,-603.300171
1733469502,-16.83857,22.291963,-18.333001,-0.496484,2.6007,-5.280884,-73.285461,-12.336212,-604.417114
1733469502,-15.158589,21.634305,-17.895011,0.091615,2.66809,-5.323384,-75.05191,-14.493118,-605.896545
1733469502,-13.589489,21.073763,-17.449241,0.707281,2.732991,-5.362813,-76.991776,-17.034424,-607.544617
1733469502,-12.138602,20.700716,-16.418088,1.285077,2.756153,-5.40928,-78.429596,-19.499222,-609.215698
1733469502,-10.611551,20.444088,-15.118635,1.793246,2.752302,-5.410562,-80.064438,-21.897705,-610.803467
1733469502,-9.153781,20.159328,-13.622858,2.209003,2.708129,-5.368783,-81.438187,-24.744858,-612.272461
1733469502,-7.936479,19.722835,-12.152219,2.520383,2.632326,-5.334587,-82.271637,-27.345306,-614.778076
1733469502,-6.781875,19.181446,-10.979061,2.748752,2.551914,-5.294219,-82.955048,-30.195358,-616.163635
1733469502,-5.522226,18.573169,-10.079439,2.943733,2.46452,-5.21993,-83.487762,-32.731155,-617.368042
1733469502,-4.189853,17.90399,-9.407267,3.140542,2.361885,-5.084754,-83.783768,-35.604645,-618.806396
1733469502,-2.897882,17.104476,-8.967482,3.381372,2.290306,-4.873885,-83.978073,-38.315933,-620.328918
1733469502,-1.739088,16.340127,-8.412776,3.616966,2.287451,-4.59645,-84.078217,-40.950729,-621.724548
1733469502,-0.713921,15.640272,-7.8042,3.80019,2.407533,-4.258851,-83.858551,-43.553009,-622.498962
1733469502,0.17358,14.846295,-7.231985,3.900499,2.653736,-3.885635,-83.51799,-45.83844,-623.103394
1733469502,0.952144,13.898939,-6.757485,3.95917,3.014211,-3.499022,-83.337112,-48.086121,-625.011047
1733469502,1.831714,13.050644,-6.360646,4.010603,3.47559,-3.079888,-82.979843,-50.098145,-626.480103
1733469502,2.810793,12.385355,-5.579986,4.036292,3.954339,-2.618592,-82.355713,-51.955353,-627.813354
1733469502,3.519327,11.744906,-4.348469,4.042522,4.310518,-2.148274,-81.733673,-53.627365,-629.142517
1733469502,4.11683,11.205612,-3.037943,4.079007,4.476632,-1.677186,-80.745346,-55.0784,-630.820923
1733469502,4.674679,10.815357,-1.466,4.145548,4.421271,-1.200796,-79.850128,-56.393738,-632.555908
1733469502,5.090073,10.365397,0.043395,4.180551,4.169835,-0.743517,-79.259506,-57.546677,-633.401733
1733469502,5.345205,9.628881,1.201291,4.180636,3.807352,-0.312121,-78.378006,-58.361771,-634.418579
1733469502,5.617545,8.940996,1.970428,4.154807,3.444846,0.090304,-77.985474,-59.172272,-634.87384
1733469502,5.905448,8.166921,2.742408,4.104329,3.088877,0.469155,-77.341125,-59.744492,-634.703979
1733469502,6.335955,7.614309,3.56347,4.015574,2.763912,0.860262,-77.24501,-60.039261,-635.63623
1733469502,6.658873,7.137863,4.016872,3.833029,2.598643,1.282629,-76.693771,-60.172684,-635.640564
1733469502,6.556671,6.691195,4.277541,3.567434,2.638991,1.716379,-76.56546,-60.277496,-636.194153
1733469502,6.138284,6.405238,4.854842,3.225559,2.744977,2.14473,-76.303253,-59.762146,-636.744019
1733469502,5.627272,6.227767,5.307496,2.870836,2.903339,2.592266,-76.31897,-59.349228,-637.071045
1733469502,4.982783,6.1112,5.701193,2.574036,3.060791,3.057171,-75.875992,-58.530945,-638.149536
1733469502,4.450971,6.124517,6.382942,2.318943,3.098056,3.529145,-75.963699,-57.530899,-638.913757
1733469502,3.897311,6.163872,7.134272,2.099232,3.016008,4.005024,-75.466019,-56.212784,-640.094666
1733469502,3.149872,6.306327,7.682395,1.913569,2.952502,4.492452,-75.342484,-54.589645,-640.931335
1733469502,2.285714,6.608745,8.748263,1.676483,2.848835,4.986525,-75.158234,-53.010605,-640.58374
1733469502,1.320253,6.641815,10.046519,1.33811,2.6444,5.482157,-74.933044,-50.745026,-642.345947
1733469502,-0.147393,6.268469,10.708815,0.913209,2.525197,5.909713,-74.751907,-48.529861,-643.364746
1733469502,-1.960103,5.73531,11.211747,0.43042,2.507057,6.267004,-74.443085,-45.747498,-644.224365
1733469502,-3.775506,5.074361,12.060043,-0.148222,2.513439,6.513595,-73.923706,-42.936768,-644.99231
1733469502,-5.477335,4.586991,13.204172,-0.863667,2.450847,6.613094,-73.082886,-39.8741,-646.306396
1733469502,-6.893206,4.726603,14.38152,-1.647866,2.174788,6.639708,-72.208694,-36.572021,-647.024536
1733469502,-8.288577,4.910657,14.904654,-2.418555,1.724014,6.592175,-70.900192,-33.146347,-647.772278
1733469502,-9.889998,4.841525,14.2455,-3.072886,1.320473,6.522493,-69.565613,-29.541733,-647.750549
1733469502,-11.919084,4.344877,13.374908,-3.653428,1.133503,6.405695,-67.6698,-25.930344,-647.892944
1733469502,-14.418631,4.115034,13.15958,-4.304357,1.135897,6.25376,-65.972626,-22.187607,-646.670044
1733469502,-17.228077,4.473117,13.29994,-5.023187,1.20227,6.038221,-64.016205,-18.3246,-646.539062
1733469502,-19.746477,5.027524,13.454815,-5.780722,1.206883,5.810369,-61.764084,-14.548203,-645.457031
1733469502,-22.768409,6.044611,13.536517,-6.564745,1.015763,5.473392,-59.98616,-10.574448,-643.595947
1733469502,-26.505159,6.75509,12.80015,-7.32918,0.632327,4.86987,-58.356461,-7.164276,-641.500183
1733469502,-29.830107,7.284209,11.132439,-7.983851,0.157152,4.051201,-56.847824,-4.076996,-638.511353
1733469502,-33.05779,8.694244,8.937256,-8.527911,-0.288651,3.042886,-55.569519,-1.307663,-635.208984
1733469502,-35.628564,10.432135,6.395661,-8.967129,-0.775135,1.948912,-54.787918,0.784637,-631.071777
1733469502,-37.379473,12.43279,3.077746,-9.177987,-1.209051,0.890873,-54.33255,2.556534,-627.077454
1733469502,-37.905599,13.884873,-0.851588,-9.093438,-1.454583,0.01185,-54.379517,3.416336,-622.897034
1733469502,-37.550808,14.586225,-4.871153,-8.742716,-1.345132,-0.66886,-54.853104,3.713379,-618.658142
1733469502,-37.071819,15.279496,-7.908048,-8.293573,-0.913606,-1.21553,-55.275665,3.809189,-615.438049
1733469502,-36.003256,16.278476,-9.373599,-7.916817,-0.367576,-1.626701,-55.745209,3.179871,-612.152161
1733469502,-35.111267,18.869751,-9.799168,-7.709403,0.15937,-1.973253,-57.073044,2.292297,-608.651917
1733469502,-34.513464,21.311687,-10.426299,-7.625687,0.585223,-2.357382,-58.170883,1.100967,-605.871338
1733469502,-33.898304,23.207446,-12.121244,-7.491882,0.962523,-2.787125,-59.844757,-0.496643,-603.622681
1733469502,-32.75627,24.925136,-14.703989,-7.191691,1.332014,-3.203521,-61.399506,-2.234818,-601.627075
1733469502,-30.9271,25.569176,-17.435175,-6.711736,1.653776,-3.636751,-63.230011,-4.252609,-600.018921
1733469502,-28.696303,26.177602,-19.953726,-6.03041,1.896325,-3.998169,-65.038986,-6.470779,-599.11853
1733469502,-25.910799,26.732459,-22.39626,-5.133426,2.101611,-4.204069,-66.781693,-8.66925,-598.733337
1733469502,-22.981642,26.346394,-24.615685,-4.025586,2.311265,-4.225796,-68.642807,-10.932434,-598.491455
1733469502,-20.460997,25.169045,-26.393081,-2.74514,2.635412,-4.113985,-70.634842,-12.361298,-599.761963
1733469502,-18.740464,23.972992,-26.56262,-1.50544,3.027043,-3.973356,-72.376724,-14.227295,-600.889465
1733469502,-17.576134,23.195624,-24.981699,-0.438706,3.39919,-3.844401,-74.195938,-15.970688,-602.595032
1733469502,-16.744448,22.325332,-22.71409,0.421429,3.740434,-3.808914,-75.795166,-17.520828,-604.971802
1733469502,-15.828666,21.330392,-20.311808,1.108929,3.959035,-3.890073,-77.540665,-19.317673,-607.22229
1733469502,-14.626776,20.812496,-18.154034,1.72855,4.024024,-4.061772,-79.173645,-21.212036,-609.615417
1733469502,-13.124265,20.642956,-16.019454,2.30668,3.885421,-4.263319,-80.12886,-23.549316,-611.883728
1733469502,-11.50369,20.726005,-13.987824,2.809994,3.592119,-4.448364,-81.529633,-25.557495,-613.767883
1733469502,-9.946711,20.72391,-12.524219,3.231159,3.295298,-4.582625,-82.146576,-27.851486,-616.086792
1733469502,-8.352621,20.692636,-11.377695,3.600654,3.039176,-4.633685,-82.738663,-30.563965,-617.217407
1733469502,-6.629095,20.450373,-10.22354,3.932891,2.783025,-4.578645,-83.191406,-33.075867,-619.412903
1733469502,-4.904073,19.834464,-9.160216,4.223911,2.551643,-4.40789,-83.403122,-35.308609,-620.869019
1733469502,-3.492392,18.920179,-8.432977,4.463296,2.494061,-4.132461,-83.522552,-37.729874,-622.081787
1733469502,-2.431461,17.999758,-7.611616,4.617981,2.62612,-3.774073,-83.5327,-39.868546,-623.991821
1733469503,-1.77964,16.85937,-6.480655,4.675212,2.883166,-3.410835,-83.317352,-42.262024,-625.471375
1733469503,-1.299453,15.598224,-5.15741,4.638571,3.146005,-3.063608,-83.037323,-44.012421,-627.061218
1733469503,-0.888847,14.421923,-4.059519,4.55288,3.41874,-2.742442,-82.965622,-46.037521,-628.683289
1733469503,-0.527024,13.318645,-3.166631,4.447711,3.679002,-2.451127,-82.139893,-47.858994,-629.994202
1733469503,-0.120907,12.342259,-2.314146,4.347435,3.861744,-2.183324,-81.518311,-49.841339,-631.741699
1733469503,0.395791,11.410017,-1.565209,4.278486,3.940855,-1.924785,-80.845184,-51.401382,-632.486694
1733469503,0.903811,10.558729,-0.871639,4.274431,3.933801,-1.688258,-79.991974,-52.927719,-634.637878
1733469503,1.445499,9.857527,-0.020351,4.296322,3.832288,-1.462579,-79.215302,-54.415207,-635.467773
1733469503,2.225111,9.38557,0.842011,4.310979,3.672572,-1.186652,-78.583984,-55.676727,-636.69458
1733469503,2.935441,8.917354,1.533636,4.298442,3.543064,-0.883155,-77.766418,-56.6707,-637.091187
1733469503,3.606566,8.394071,2.227505,4.235525,3.470935,-0.539342,-76.711075,-57.74852,-637.606934
1733469503,4.164564,7.942614,3.052158,4.091191,3.480496,-0.131697,-75.987015,-58.558395,-638.769836
1733469503,4.515015,7.477541,3.978714,3.835552,3.53505,0.317824,-75.351974,-58.921173,-639.231812
1733469503,4.773888,7.002441,4.809353,3.510135,3.578305,0.797199,-74.929367,-59.254623,-639.888184
1733469503,4.891055,6.390723,5.391593,3.185601,3.592394,1.271802,-74.329742,-59.607391,-640.719666
1733469503,4.994454,5.726631,6.067655,2.86887,3.477878,1.732468,-73.883713,-59.328629,-640.892639
1733469503,5.077354,5.173571,6.52824,2.577265,3.246835,2.163598,-73.749741,-58.931458,-642.224304
1733469503,5.104438,4.770447,6.686257,2.342706,2.935583,2.591053,-73.631287,-58.076111,-643.079224
1733469503,5.151873,4.474464,6.678326,2.164217,2.614529,3.02935,-73.456726,-57.396484,-643.166016
1733469503,5.002984,4.204517,6.665607,2.019959,2.323486,3.479617,-73.258469,-56.263824,-643.720398
1733469503,4.497657,4.165013,6.779631,1.885197,2.051161,3.929158,-73.344894,-55.053391,-643.940125
1733469503,3.781492,4.258088,6.883479,1.777857,1.839591,4.409588,-73.365952,-53.374268,-644.549377
1733469503,2.735675,4.022558,6.991518,1.685532,1.75631,4.880754,-73.543839,-51.612122,-644.768066
1733469503,1.217152,3.652205,7.376236,1.524482,1.808542,5.285618,-73.281235,-49.695221,-645.70105
1733469503,-0.448314,3.265541,8.246528,1.235797,1.882575,5.573864,-73.051315,-47.777191,-646.504028
1733469503,-2.041655,2.78715,9.667038,0.820561,1.850382,5.75413,-72.454926,-45.518097,-646.489563
1733469503,-3.680337,2.46932,11.146954,0.273579,1.682462,5.833365,-72.006668,-42.913147,-647.250122
1733469503,-5.331588,2.303521,12.155811,-0.344135,1.449426,5.852124,-71.475723,-40.146088,-647.747314
1733469503,-6.697779,2.098967,12.454487,-0.945794,1.222432,5.855126,-70.629837,-37.483093,-648.203003
1733469503,-8.015039,1.90354,12.483816,-1.504635,1.016805,5.855361,-69.959702,-34.382797,-648.475647
1733469503,-9.231593,1.92838,12.537536,-2.03086,0.813974,5.889987,-68.869781,-31.027542,-648.366638
1733469503,-10.367641,2.140716,12.776208,-2.525596,0.59352,6.003105,-68.869781,-31.027542,-648.366638
1733469503,-12.727726,2.389413,13.578864,-3.073603,0.372506,6.10708,-67.786499,-27.751892,-648.220154
1733469503,-16.297031,2.493411,14.276624,-3.76537,0.203284,6.066468,-66.75116,-24.088974,-647.644775
1733469503,-20.178182,2.410363,14.376433,-4.574104,0.196354,5.81876,-65.256531,-20.729279,-647.514343
1733469503,-24.101979,2.372205,14.11726,-5.539341,0.324142,5.296947,-63.661362,-16.987991,-645.975159
1733469503,-26.978762,2.107346,13.303531,-6.585793,0.370076,4.53546,-62.343094,-13.642136,-643.796631
1733469503,-28.638393,2.484433,11.36318,-7.430847,0.152234,3.689155,-61.305054,-10.209412,-642.043762
1733469503,-29.866918,4.197634,8.620772,-7.865626,-0.407513,2.853769,-60.384323,-7.196152,-639.482239
1733469503,-30.819959,5.735759,5.629067,-7.930533,-1.164752,2.07354,-59.563553,-4.916183,-636.109131
1733469503,-32.206053,7.31264,2.744803,-7.736454,-1.869328,1.343815,-59.175201,-2.863571,-632.934998
1733469503,-33.65245,9.293543,0.167893,-7.505004,-2.252316,0.675324,-59.018646,-1.31134,-629.450806
1733469503,-33.971776,10.419715,-1.987038,-7.415748,-2.161625,0.145133,-59.106674,-0.04776,-625.360413
1733469503,-33.660231,11.675175,-3.439121,-7.523057,-1.745647,-0.274605,-59.04657,0.407013,-622.334351
1733469503,-32.944514,13.290363,-4.839879,-7.778807,-1.105585,-0.598141,-59.68042,0.63649,-618.931091
1733469503,-32.032473,14.930242,-6.339696,-8.073655,-0.432379,-0.875942,-59.969833,0.74826,-615.693604
1733469503,-31.715989,16.932842,-8.116942,-8.308022,0.146853,-1.224162,-60.800919,0.249588,-611.494751
1733469503,-31.332917,18.782961,-10.864887,-8.321835,0.639161,-1.639002,-61.310486,-0.46962,-609.174744
1733469503,-30.153324,19.799,-14.322264,-7.95925,1.078155,-1.997679,-62.666779,-1.723083,-607.078064
1733469503,-28.936621,19.998467,-17.592145,-7.180813,1.433246,-2.328861,-63.653564,-3.259232,-605.466797
1733469503,-27.732936,19.796307,-19.771916,-6.12002,1.631679,-2.686699,-65.135712,-4.72821,-604.105347
1733469503,-26.38096,19.354128,-20.928615,-5.043074,1.731535,-3.067163,-66.230316,-6.289246,-603.034424
1733469503,-25.052777,19.242947,-21.229236,-4.055734,1.821826,-3.443905,-68.232315,-8.080887,-602.496948
1733469503,-23.587675,18.988264,-20.954951,-3.216042,1.90026,-3.825171,-69.901306,-9.7715,-602.601868
1733469503,-22.00825,19.11381,-20.148254,-2.484511,1.927278,-4.174508,-71.641602,-11.681595,-602.932007
1733469503,-20.304027,19.313875,-19.155708,-1.898945,1.900477,-4.480078,-73.183533,-13.757309,-603.190125
1733469503,-18.319533,19.455881,-18.803312,-1.366028,1.938293,-4.672711,-74.720245,-15.869965,-603.714111
1733469503,-16.354343,19.542372,-18.862269,-0.831719,2.079351,-4.752491,-75.861069,-18.109497,-604.975647
1733469503,-14.464869,19.257013,-18.876185,-0.283782,2.322683,-4.742887,-77.73378,-20.085663,-606.185791
1733469503,-12.673407,18.842367,-18.591425,0.814041,2.921185,-4.52968,-78.870346,-22.455063,-607.982239
1733469503,-9.560347,18.119318,-16.626982,1.323267,3.124156,-4.38378,-80.033966,-24.679443,-609.596069
1733469503,-8.248324,17.726819,-15.312266,1.808892,3.246691,-4.227452,-81.258911,-26.723862,-611.238037
1733469503,-7.083096,17.434876,-13.880234,2.254565,3.280373,-4.059883,-82.189972,-28.887131,-613.385986
1733469503,-6.088754,16.945262,-12.492944,2.645331,3.251467,-3.898584,-82.653793,-30.862305,-615.389099
1733469503,-5.196615,16.316784,-11.108198,2.991569,3.154717,-3.74259,-83.231476,-33.071609,-617.304077
1733469503,-4.336498,15.562012,-9.745747,3.296095,2.991866,-3.587669,-83.589981,-35.104431,-618.84198
1733469503,-3.560028,14.772524,-8.665963,3.56761,2.831888,-3.410258,-83.601883,-37.141663,-620.005371
1733469503,-2.83683,14.050821,-7.888296,3.800647,2.741523,-3.210153,-83.633469,-39.104477,-621.532593
1733469503,-2.83683,14.050821,-7.888296,3.800647,2.741523,-3.210153,-83.809357,-40.910538,-623.345825
1733469503,-1.340454,12.335526,-6.496517,4.123752,2.810912,-2.768536,-83.571869,-43.084061,-624.538818
1733469503,-0.626233,11.617864,-5.893477,4.243823,2.941298,-2.523028,-83.287827,-44.737366,-625.962463
1733469503,-0.626233,11.617864,-5.893477,4.243823,2.941298,-2.523028,-82.963364,-46.701508,-627.151062
1733469503,0.668431,10.452636,-4.520702,4.383736,3.33853,-1.927776,-82.435867,-48.197662,-628.627258
1733469503,0.965911,10.068815,-3.692158,4.372281,3.629211,-1.601472,-82.111496,-49.701141,-629.739746
1733469503,1.396568,9.82715,-2.744653,4.315517,3.908915,-1.251309,-81.341034,-51.310837,-630.850281
1733469503,1.782633,9.486575,-1.455675,4.264141,4.086519,-0.886102,-80.603256,-52.363785,-631.975525
1733469503,2.290353,9.139566,0.043096,4.171055,4.06791,-0.503882,-79.819672,-53.499542,-633.260254
1733469503,2.941277,8.701127,1.126023,4.02638,3.923647,-0.112136,-79.164612,-54.610199,-634.251343
1733469503,3.514538,8.299799,1.447445,3.873015,3.808616,0.317835,-78.212128,-55.328186,-635.781189
1733469503,3.854216,7.945457,1.208473,3.753154,3.819577,0.780281,-77.793091,-55.85643,-636.706604
1733469503,4.140323,7.728483,1.053898,3.687852,3.896312,1.284642,-77.099533,-56.18277,-637.777039
1733469503,4.514716,7.545027,1.366491,3.662982,3.953833,1.795629,-76.504913,-56.512207,-638.955383
1733469503,4.6452,7.361721,2.139518,3.654099,3.918151,2.3047,-75.759155,-56.521484,-640.327148
1733469503,4.316147,7.197269,3.243395,3.641304,3.810074,2.761417,-75.35968,-56.362503,-641.093323
1733469503,3.899406,7.101801,4.821922,3.544104,3.574469,3.165976,-74.860641,-56.000168,-642.182373
1733469503,3.53878,7.151181,6.489783,3.386591,3.18057,3.579971,-74.466675,-55.411682,-642.241089
1733469503,3.189675,7.031471,7.639,3.201592,2.78156,4.006519,-74.492004,-54.584351,-642.909119
1733469503,2.518999,6.790255,8.477868,2.962152,2.492244,4.427216,-73.985535,-53.707916,-643.694031
1733469503,1.65559,6.522105,9.763105,2.59213,2.221346,4.782988,-73.887283,-52.700012,-644.361572
1733469503,0.946757,6.344934,11.149348,2.055027,1.889582,5.071475,-74.033493,-51.174026,-644.680237
1733469503,0.129287,6.04102,11.788899,1.448553,1.56882,5.304755,-73.789886,-49.417496,-645.227722
1733469503,-0.869843,5.770475,11.711537,0.89579,1.28001,5.558589,-73.621628,-47.227158,-645.277466
1733469503,-2.038962,5.613056,11.365575,0.471969,1.059623,5.869944,-73.682999,-45.202103,-645.627136
1733469503,-3.749918,5.167136,11.229554,0.08733,0.954257,6.185428,-72.808899,-42.909317,-646.486206
1733469503,-5.910835,4.72376,11.53242,-0.367732,0.991592,6.451314,-72.369568,-39.92659,-646.66687
1733469503,-8.248474,4.44693,11.923573,-0.96356,1.196761,6.621366,-71.500275,-37.144974,-646.772827
1733469503,-10.490494,4.148852,12.524667,-1.683139,1.477212,6.710374,-70.982101,-34.000244,-647.474487
1733469503,-13.036129,3.455731,13.469479,-2.522023,1.69826,6.668437,-69.522308,-30.430573,-647.848694
1733469503,-15.798738,2.683601,14.736012,-3.488207,1.657014,6.470375,-67.64325,-26.897141,-648.100891
1733469503,-18.698565,2.518251,15.061025,-4.433247,1.368049,6.138033,-66.013031,-23.113907,-648.246948
1733469504,-21.373038,2.700959,13.788507,-5.181027,0.944012,5.756582,-64.364563,-19.405441,-647.282715
1733469504,-23.901315,2.425925,11.614272,-5.677589,0.535965,5.268903,-62.633331,-15.858017,-646.766296
1733469504,-26.453534,2.265064,9.464578,-6.062542,0.244845,4.599718,-61.11319,-12.691025,-644.918274
1733469504,-28.207885,2.915539,8.323741,-6.448132,-0.139733,3.868972,-59.831375,-9.298843,-642.721924
1733469504,-29.68406,4.249259,7.244256,-6.813379,-0.643689,3.156283,-58.600693,-6.540054,-640.574829
1733469504,-31.297603,5.778406,5.0377,-7.088109,-1.04173,2.459463,-57.472229,-4.135071,-637.044861
1733469504,-32.477794,6.666056,2.629881,-7.278011,-1.344582,1.799534,-56.892502,-1.93782,-634.814697
1733469504,-33.071556,7.579145,0.341922,-7.384963,-1.549319,1.223729,-56.184998,-0.290161,-631.518677
1733469504,-33.576883,8.545205,-2.065897,-7.439683,-1.589897,0.694019,-56.279236,1.032516,-627.570068
1733469504,-33.999759,10.204686,-4.26138,-7.494195,-1.430741,0.200769,-56.261917,2.117004,-624.093994
1733469504,-34.228255,11.824663,-6.265626,-7.565526,-1.112916,-0.269323,-56.299866,2.725433,-620.944946
1733469504,-34.913296,13.846566,-8.124873,-7.64536,-0.754807,-0.815931,-56.599365,2.915466,-617.653564
1733469504,-35.212122,15.865925,-10.651654,-7.596119,-0.399601,-1.388404,-57.133698,2.538559,-613.991211
1733469504,-35.058893,17.374871,-13.652935,-7.298219,-0.092026,-1.997485,-58.333038,2.076599,-610.438171
1733469504,-34.61043,18.571224,-16.725594,-6.761732,0.098256,-2.638723,-59.614761,0.738617,-608.413391
1733469504,-33.240348,18.573319,-19.962704,-5.969563,0.291236,-3.246961,-60.921951,-0.643829,-605.931641
1733469504,-31.229966,18.318037,-22.572533,-4.993324,0.553431,-3.777406,-62.819611,-2.240372,-604.603394
1733469504,-28.708274,18.640506,-23.460782,-3.980346,0.792475,-4.14887,-64.388855,-3.936859,-602.537231
1733469504,-26.027965,18.875886,-23.214479,-3.021116,1.05105,-4.357963,-66.268799,-6.068558,-602.500366
1733469504,-23.549816,18.902821,-22.183176,-2.223731,1.339816,-4.454996,-68.007156,-7.878159,-602.344299
1733469504,-21.293581,18.813038,-20.707001,-1.605388,1.599471,-4.464758,-69.420197,-9.778778,-603.392517
1733469504,-19.424158,18.538603,-19.254619,-1.117188,1.853651,-4.437325,-71.777542,-11.794159,-603.66333
1733469504,-17.987787,18.144906,-17.928081,-0.748666,2.041237,-4.453573,-73.378937,-13.634796,-604.753601
1733469504,-16.67741,17.789218,-17.107169,-0.424006,2.205663,-4.516759,-75.115479,-15.469513,-605.360779
1733469504,-15.238495,17.321301,-16.915484,-0.064696,2.394265,-4.601284,-76.785553,-17.697235,-606.182007
1733469504,-13.652785,16.852636,-16.750134,0.352859,2.58564,-4.673628,-78.263809,-19.727081,-608.61853
1733469504,-12.112865,16.559945,-16.451757,0.821181,2.785669,-4.722067,-79.440353,-22.046555,-609.326721
1733469504,-10.486454,16.457892,-15.759084,1.31317,2.958306,-4.716122,-80.601639,-24.306808,-611.693237
1733469504,-8.970176,16.488418,-14.441076,1.791483,3.029634,-4.680011,-81.874146,-26.842529,-613.156616
1733469504,-7.592013,16.32651,-12.927941,2.225728,3.003408,-4.623724,-82.187103,-29.090332,-614.59082
1733469504,-6.174048,16.145,-11.415853,2.625501,2.852735,-4.528139,-82.916611,-31.552933,-617.167908
1733469504,-4.643554,15.812056,-10.046669,2.985028,2.644435,-4.382032,-83.452744,-33.915543,-617.925293
1733469504,-3.352032,15.222633,-8.989479,3.267541,2.476261,-4.192908,-83.666733,-36.315903,-619.871155
1733469504,-2.261772,14.526819,-8.128913,3.474289,2.435288,-3.953028,-83.877213,-38.405701,-620.63855
1733469504,-1.194258,13.835493,-7.528417,3.601082,2.581363,-3.639357,-83.925766,-40.502457,-622.144714
1733469504,-0.27249,13.142222,-6.901286,3.665404,2.867171,-3.270016,-83.797134,-42.637543,-624.3078
1733469504,0.56563,12.435783,-6.165518,3.692958,3.231495,-2.858355,-83.351288,-44.613892,-625.540833
1733469504,1.312471,11.625495,-5.196166,3.721035,3.50084,-2.443918,-83.159622,-46.210449,-627.464478
1733469504,1.970428,10.770915,-4.181623,3.782808,3.646192,-2.03903,-82.907791,-47.654572,-628.501404
1733469504,2.59741,10.045172,-3.361908,3.874516,3.732857,-1.644095,-82.291748,-49.118454,-629.510132
1733469504,3.01834,9.552416,-2.320879,3.951597,3.755049,-1.258069,-81.628326,-50.231827,-631.812195
1733469504,3.305495,8.924836,-0.989105,3.960208,3.719992,-0.916319,-80.895187,-51.619247,-632.163086
1733469504,3.603423,8.327931,0.593313,3.865458,3.536005,-0.596533,-80.331421,-52.285522,-633.643372
1733469504,4.113837,7.907001,1.679682,3.712479,3.283765,-0.270217,-79.845825,-53.137634,-633.808228
1733469504,4.573973,7.335086,2.118719,3.556445,3.090706,0.056414,-79.261581,-53.728577,-634.888367
1733469504,4.998794,6.804171,2.439093,3.368751,2.98712,0.406185,-78.711319,-54.085251,-636.110901
1733469504,5.333832,6.444293,2.846257,3.136555,2.914548,0.787311,-78.091385,-54.331833,-636.742249
1733469504,5.601534,6.200533,3.047669,2.912224,2.903259,1.22541,-77.711761,-54.359238,-637.504272
1733469504,5.729175,5.902605,3.017742,2.72614,2.991292,1.707341,-77.15921,-54.127289,-638.99939
1733469504,5.725584,5.601085,3.349787,2.553426,3.100029,2.222606,-76.628952,-53.838394,-639.523071
1733469504,5.515792,5.403264,4.00954,2.382831,3.178535,2.767727,-76.363861,-52.897217,-640.828247
1733469504,4.86427,5.127632,4.841375,2.175707,3.182281,3.270801,-75.702728,-52.160065,-641.57251
1733469504,3.999215,4.825813,5.722142,1.938403,3.053149,3.709619,-75.491394,-50.874207,-642.980591
1733469504,3.35712,4.753987,6.426337,1.707629,2.810495,4.108581,-75.295578,-49.35231,-643.980347
1733469504,2.74181,4.67408,7.007679,1.515576,2.508497,4.487459,-74.722992,-47.981033,-644.191528
1733469504,2.180519,4.715829,7.8455,1.330104,2.098468,4.884544,-73.959137,-46.18631,-645.422302
1733469504,1.393276,4.905869,8.761581,1.153666,1.607862,5.318567,-73.593201,-44.30954,-644.965698
1733469504,0.048782,5.167884,8.950124,0.976389,1.315804,5.780283,-73.437912,-42.029434,-646.228516
1733469504,-1.935562,5.20664,8.905981,0.736821,1.351349,6.194535,-72.659576,-39.512772,-646.947449
1733469504,-4.413262,5.129727,9.595661,0.334536,1.551424,6.465153,-71.796967,-37.071045,-647.086914
1733469504,-7.030424,4.984877,10.96694,-0.238784,1.70499,6.581467,-70.702255,-34.098969,-648.102234
1733469504,-9.393201,4.617816,12.681188,-0.917583,1.69423,6.590228,-69.186401,-31.382263,-647.845459
1733469504,-11.736227,4.171896,14.297125,-1.693436,1.455545,6.52178,-67.783539,-27.945389,-648.232849
1733469504,-14.012664,3.888483,15.218294,-2.501521,1.063684,6.416534,-66.280121,-24.717987,-648.575989
1733469504,-16.509367,3.74498,14.977527,-3.282098,0.715834,6.254771,-64.82666,-21.285706,-647.900146
1733469504,-19.437476,3.420566,13.628993,-4.001988,0.583921,5.9832,-62.98613,-17.886169,-646.970337
1733469504,-22.775591,3.002329,12.082488,-4.671822,0.682374,5.531435,-61.657883,-14.485733,-646.086426
1733469504,-25.518299,2.500444,11.176133,-5.381337,0.767134,4.875163,-59.816315,-11.427658,-644.398987
1733469504,-27.388021,2.675969,10.441712,-6.020316,0.614927,4.11246,-58.220276,-8.405014,-642.983887
1733469504,-29.024458,3.571101,9.176676,-6.511594,0.224102,3.248902,-57.185944,-5.843185,-640.141663
1733469504,-29.666403,4.684256,7.60174,-6.84716,-0.342586,2.449685,-56.282455,-3.41069,-638.307373
1733469504,-29.853301,6.376657,5.571008,-7.045854,-0.891141,1.814077,-55.617691,-1.22934,-634.584595
1733469504,-30.155868,8.563012,3.477129,-7.234676,-1.265608,1.36222,-55.084854,0.692032,-630.767395
1733469504,-30.509012,10.676044,1.440262,-7.510809,-1.36936,1.055081,-54.667633,2.015335,-628.05365
1733469504,-31.206473,12.417826,-0.955735,-7.898034,-1.132984,0.797368,-54.73288,3.201477,-624.049316
1733469504,-32.70255,14.018799,-3.758298,-8.354838,-0.681419,0.396274,-54.482941,3.902756,-620.987366
1733469504,-34.36263,15.718084,-7.416937,-8.705671,-0.100923,-0.232366,-55.227737,4.172699,-616.827454
1733469504,-34.855686,17.079935,-11.408371,-8.736446,0.381536,-0.96793,-55.695267,3.69136,-613.235474
1733469504,-34.778622,18.198028,-15.185374,-8.349811,0.598442,-1.805482,-57.186539,2.885483,-610.670532
1733469504,-34.024748,18.901175,-18.72954,-7.567879,0.597462,-2.641093,-57.186539,2.885483,-610.670532
1733469504,-32.315737,19.415629,-21.994932,-6.49918,0.601907,-3.354687,-58.392593,1.73616,-607.721924
1733469504,-30.189087,19.686622,-24.062325,-5.349137,0.687652,-3.894173,-60.21637,0.435089,-605.813538
1733469504,-27.949312,19.824439,-24.773702,-4.27561,0.925448,-4.279523,-61.853714,-1.199127,-603.944824
1733469504,-25.56349,20.148254,-24.08103,-3.377465,1.221336,-4.525111,-63.85791,-3.191086,-602.713745
1733469504,-23.13951,20.765061,-22.684761,-2.63167,1.465435,-4.640635,-65.761154,-5.065628,-603.052734
1733469504,-21.047576,21.000291,-21.287296,-2.008664,1.615574,-4.694428,-67.821915,-7.074295,-602.478577
1733469504,-19.354726,20.794689,-20.383485,-1.491378,1.776192,-4.754289,-69.947571,-9.008682,-603.56427
1733469504,-17.690906,20.647745,-19.905542,-1.029417,1.993015,-4.794706,-71.459396,-10.923264,-604.017151
1733469504,-16.083199,20.312257,-19.559281,-0.571019,2.280789,-4.808198,-73.4935,-13.097885,-604.24646
1733469504,-14.585776,19.752313,-19.123536,-0.111537,2.605598,-4.797479,-74.91481,-15.272095,-606.069458
1733469504,-13.16362,18.990508,-18.612374,0.362663,2.996329,-4.808345,-76.901093,-17.272537,-607.254456
1733469504,-11.739968,18.415152,-17.633295,0.851309,3.302657,-4.829505,-78.261856,-19.587891,-609.827881
1733469504,-10.232219,18.306365,-16.231341,1.382859,3.457516,-4.816212,-79.677963,-21.810333,-611.435608
1733469504,-8.713547,18.29604,-14.851532,1.940262,3.458839,-4.744022,-80.97641,-24.204834,-612.96167
1733469504,-7.232434,18.063803,-13.48549,2.508916,3.355435,-4.628883,-81.987778,-26.622986,-615.934631
1733469504,-5.963657,17.646613,-12.006024,3.047534,3.156167,-4.480977,-82.545944,-29.005859,-616.870972
1733469504,-4.764162,17.101034,-10.458771,3.509461,2.945424,-4.296379,-83.08847,-31.35614,-619.346191
1733469504,-3.671209,16.63641,-8.988581,3.852302,2.791917,-4.064911,-83.350616,-33.63678,-621.385986
1733469504,-2.726397,15.840188,-7.646332,4.064836,2.696977,-3.809764,-83.699844,-36.010422,-622.075867
1733469504,-1.923142,14.797812,-6.711097,4.179996,2.732261,-3.549717,-83.785126,-38.166458,-624.238159
1733469505,-1.085621,13.901483,-5.869834,4.232877,2.84804,-3.273497,-83.553635,-40.423782,-625.694763
1733469505,-0.286556,12.998121,-4.995352,4.254315,2.977777,-2.981521,-83.364563,-42.629288,-626.548584
1733469505,0.431256,12.029517,-4.318841,4.270779,3.125095,-2.691792,-83.123749,-44.488602,-628.511108
1733469505,1.134403,11.121815,-3.710115,4.312662,3.243887,-2.397194,-82.791962,-46.312668,-629.21521
1733469505,1.782633,10.320954,-2.99754,4.39884,3.340356,-2.11091,-82.142273,-48.151871,-629.918213
1733469505,2.405275,9.613468,-1.879897,4.476665,3.380908,-1.816303,-81.331772,-49.80072,-632.159912
1733469505,3.135207,9.276783,-0.382025,4.479411,3.368818,-1.472503,-80.756332,-51.368912,-632.979492
1733469505,4.00131,8.945486,1.203236,4.350602,3.296895,-1.07406,-80.23114,-52.761047,-634.447021
1733469505,4.799177,8.491784,2.655619,4.096725,3.182899,-0.635989,-79.367859,-54.020126,-634.367981
1733469505,5.48751,7.903409,3.400664,3.775624,3.114503,-0.16485,-78.830826,-54.730255,-635.916321
1733469505,6.187515,7.323264,3.546561,3.485758,3.173196,0.368262,-78.330002,-55.145035,-636.754761
1733469505,6.916849,6.959495,3.823091,3.228528,3.253501,0.972519,-77.565765,-55.415634,-637.486328
1733469505,7.339276,6.736386,4.488081,2.976574,3.269321,1.611204,-77.41571,-55.704376,-637.572388
1733469505,7.318177,6.337003,5.119851,2.719567,3.246765,2.223672,-77.012497,-55.335266,-639.328796
1733469505,6.965331,5.925649,5.949591,2.431332,3.107869,2.791587,-76.517929,-54.795456,-640.298645
1733469505,6.344335,5.651663,6.431723,2.100353,2.926604,3.277164,-76.1521,-53.910126,-641.192566
1733469505,5.67336,5.325303,6.591836,1.796714,2.692359,3.697201,-75.971436,-52.858292,-641.846069
1733469505,5.116409,4.729446,6.62326,1.586689,2.445668,4.06794,-75.79808,-51.350464,-642.132812
1733469505,4.392163,4.358494,6.91206,1.429357,2.181077,4.416282,-75.440262,-49.75853,-643.132507
1733469505,3.511246,4.217087,7.482928,1.29921,1.893367,4.792408,-75.123352,-48.28772,-643.949341
1733469505,2.324471,4.087202,7.905205,1.150908,1.709578,5.168537,-74.52713,-46.280746,-645.021362
1733469505,0.812532,3.803189,8.351574,0.912525,1.657467,5.489085,-74.450546,-44.104263,-645.3302
1733469505,-0.760009,3.693206,9.214085,0.548505,1.635274,5.742812,-73.838928,-41.897415,-646.393616
1733469505,-2.29978,3.832219,10.244041,0.062146,1.575586,5.950614,-73.056641,-39.376587,-646.305786
1733469505,-3.879953,4.067749,11.011981,-0.473733,1.51985,6.14009,-72.215622,-36.70079,-647.239868
1733469505,-6.353912,3.71625,11.622802,-1.092634,1.488471,6.181232,-71.189575,-33.861374,-647.543823
1733469505,-8.911667,3.298611,12.257714,-1.821103,1.452551,6.117762,-70.113388,-30.658508,-647.79126
1733469505,-11.481095,2.554613,12.33792,-2.632857,1.469507,5.888011,-68.512665,-27.504608,-647.904297
1733469505,-13.585598,1.980753,11.959486,-3.408397,1.465103,5.554192,-66.873505,-24.451111,-648.413208
1733469505,-14.664934,2.052579,11.876886,-4.090756,1.242358,5.246932,-65.730392,-21.394882,-647.326172
1733469505,-15.99611,2.304718,11.963676,-4.670185,0.722211,4.913132,-64.10173,-17.868271,-646.761353
1733469505,-18.071434,2.885312,11.352257,-5.120485,0.151898,4.53806,-62.46936,-14.506317,-646.088745
1733469505,-20.721366,3.857957,10.569802,-5.549127,-0.379272,4.119944,-60.946625,-11.420563,-643.408447
1733469505,-23.155222,4.81025,9.643096,-5.986291,-0.829191,3.764254,-59.772293,-8.599411,-641.70929
1733469505,-26.065225,5.241057,8.003068,-6.405105,-1.048789,3.388137,-58.601364,-5.770935,-639.083191
1733469505,-29.507488,5.341314,5.878663,-6.812365,-1.012822,2.858098,-57.534943,-3.185349,-635.763
1733469505,-32.352248,5.980416,3.920804,-7.188464,-0.855584,2.247973,-56.670517,-1.144669,-633.588989
1733469505,-34.27165,6.504747,2.321328,-7.558483,-0.815346,1.580768,-56.184631,0.582901,-629.409546
1733469505,-35.796308,7.122451,0.068983,-7.816824,-0.832376,0.859905,-55.450958,1.912781,-626.500061
1733469505,-36.98847,8.750807,-2.866159,-7.936412,-0.809275,0.117538,-55.601837,2.74202,-623.477661
1733469505,-37.464617,9.995193,-5.975628,-7.87341,-0.756624,-0.618906,-56.268295,3.167786,-619.551514
1733469505,-38.28119,11.985822,-8.788965,-7.647192,-0.749166,-1.426149,-56.715012,2.754532,-616.636902
1733469505,-38.193502,14.157962,-11.760019,-7.238547,-0.751646,-2.186797,-57.473831,2.2155,-613.217285
1733469505,-36.700268,15.771654,-15.102026,-6.617923,-0.561522,-2.777725,-58.751022,1.273697,-610.55896
1733469505,-34.316841,16.924163,-17.516129,-5.93232,-0.271859,-3.157144,-60.212555,-0.064072,-608.184143
1733469505,-31.493029,17.636587,-18.96507,-5.272452,0.08483,-3.340021,-61.690155,-1.635391,-606.179077
1733469505,-29.246819,18.21778,-19.495535,-4.690026,0.413274,-3.417905,-63.217911,-3.06839,-605.130615
1733469505,-27.805211,18.860024,-19.593249,-4.187704,0.740348,-3.495898,-64.954987,-4.7621,-604.587463
1733469505,-26.556784,19.338266,-19.633501,-3.76153,1.017772,-3.631516,-66.612946,-6.24527,-603.929443
1733469505,-25.008035,19.467104,-20.098575,-3.290899,1.228452,-3.796546,-68.536789,-8.061798,-603.676025
1733469505,-23.42023,19.08059,-21.294478,-2.671807,1.481874,-3.975744,-69.986496,-10.066528,-603.767395
1733469505,-21.544523,18.695722,-21.80579,-1.975066,1.714052,-4.142103,-71.785889,-11.69603,-603.810791
1733469505,-19.606117,18.530073,-21.434988,-1.294627,1.917483,-4.253834,-73.085068,-13.798706,-604.728638
1733469505,-18.138023,18.510471,-20.827759,-0.69171,2.192821,-4.367715,-74.865494,-15.475494,-606.029419
1733469505,-16.57416,18.65966,-19.825935,-0.173675,2.461587,-4.464829,-76.385696,-17.712082,-607.153198
1733469505,-14.780903,18.893543,-18.562694,0.292694,2.671842,-4.514287,-77.623047,-19.877686,-607.968994
1733469505,-13.201927,18.815133,-17.567455,0.746123,2.834184,-4.564625,-79.021255,-21.952515,-610.143677
1733469505,-11.632528,18.826505,-16.692673,1.242171,2.935941,-4.572066,-80.307343,-24.142319,-612.127075
1733469505,-10.016143,18.954146,-15.61229,1.774313,2.965251,-4.535084,-81.318893,-26.543488,-614.199707
1733469505,-8.568399,18.852692,-14.040646,2.257825,2.872015,-4.472723,-82.14357,-28.671631,-615.208191
1733469505,-7.306505,18.633024,-12.497433,2.67239,2.736638,-4.391086,-82.908173,-30.922165,-617.020508
1733469505,-6.223727,18.241572,-11.224915,3.009126,2.625795,-4.288232,-83.051605,-33.240067,-618.715698
1733469505,-5.201702,17.717092,-10.016592,3.256786,2.5601,-4.146789,-83.146667,-35.636444,-620.138306
1733469505,-4.242675,17.105823,-9.033473,3.435557,2.570617,-3.951874,-83.560577,-37.745178,-621.765747
1733469505,-3.318064,16.237476,-8.440309,3.564742,2.72939,-3.694052,-83.424576,-40.114471,-622.986694
1733469505,-2.545336,15.312566,-7.871836,3.670747,2.996761,-3.421398,-83.240311,-42.078094,-623.845581
1733469505,-1.989432,14.317476,-7.009624,3.791316,3.253105,-3.155921,-82.966019,-44.157074,-626.404297
1733469505,-1.423503,13.348722,-5.907094,3.929582,3.440913,-2.89191,-82.727844,-46.131134,-627.658142
1733469505,-0.989703,12.364106,-4.540603,4.060491,3.50375,-2.676698,-82.512085,-48.074768,-628.898499
1733469505,-0.565032,11.389666,-3.17935,4.170153,3.452246,-2.50474,-81.776535,-49.76033,-630.30072
1733469505,0.018405,10.703727,-2.000355,4.255567,3.341698,-2.34191,-81.099899,-51.466446,-631.464844
1733469505,0.704195,10.138995,-0.968903,4.288187,3.2361,-2.157816,-80.296951,-53.301056,-632.308228
1733469505,1.519121,9.673921,0.035314,4.237508,3.144683,-1.937849,-79.457596,-54.760956,-633.149292
1733469505,2.44044,9.454253,0.874183,4.11534,3.091471,-1.6396,-78.759705,-56.244858,-633.739197
1733469505,3.27856,9.317934,1.322796,3.943753,3.139601,-1.262047,-78.161621,-57.315155,-634.324951
1733469505,4.094683,8.982745,1.762282,3.762285,3.196362,-0.812471,-77.78093,-58.238419,-634.480042
1733469505,4.806509,8.651597,2.029535,3.596596,3.299693,-0.31058,-76.777023,-58.930923,-636.191711
1733469505,5.283405,8.242937,2.14281,3.44835,3.47673,0.230462,-76.286957,-59.365631,-636.693787
1733469505,5.672462,7.871686,2.5187,3.30682,3.681509,0.8064,-75.799026,-59.700958,-637.805054
1733469505,5.747281,7.491756,3.389441,3.174191,3.765533,1.373378,-75.49527,-59.569992,-638.377197
1733469505,5.716905,7.033117,4.501847,3.062517,3.683349,1.925524,-75.102264,-59.335983,-639.212341
1733469505,5.552453,6.564003,5.696255,2.946951,3.405861,2.44646,-74.799088,-58.96373,-640.083862
1733469505,5.181501,6.162077,6.566547,2.829641,3.076834,2.932766,-74.561356,-58.336044,-641.143005
1733469505,4.570381,5.65675,7.208193,2.680465,2.79039,3.379097,-74.760513,-57.402023,-641.091919
1733469505,3.949984,5.182848,8.119037,2.442288,2.475938,3.788876,-74.541702,-56.036804,-642.038574
1733469505,3.329287,4.872051,8.672996,2.127844,2.226683,4.174693,-74.463135,-54.723114,-641.717285
1733469505,2.61387,4.64954,8.797344,1.804956,2.051043,4.597574,-74.281479,-53.107132,-643.036438
1733469505,1.678784,4.082563,8.574235,1.538763,2.010368,5.037354,-74.057861,-51.142868,-643.579956
1733469505,0.370353,3.363255,8.500314,1.266541,2.099835,5.416888,-73.986725,-48.992859,-644.562317
1733469505,-1.11061,3.010709,9.378387,0.914139,2.182305,5.753024,-73.843384,-46.639923,-645.487671
1733469505,-2.965668,2.666243,10.843339,0.433004,2.20216,5.976885,-73.075043,-43.989197,-645.761658
1733469505,-4.662408,2.291401,12.602928,-0.216625,2.051556,6.119399,-72.625916,-41.417068,-646.949768
1733469505,-6.116736,2.344522,13.895049,-0.934628,1.79116,6.285435,-71.667023,-38.217606,-647.662476
1733469505,-8.219743,1.998709,14.314782,-1.687268,1.589392,6.388238,-70.917816,-34.681412,-648.333984
1733469505,-11.11134,1.367089,14.193576,-2.546402,1.582084,6.341146,-69.517151,-31.294281,-648.70752
1733469505,-13.714137,0.859518,13.958495,-3.51668,1.606336,6.119709,-68.123199,-27.854416,-647.915161
1733469505,-15.072547,1.099986,13.133244,-4.419557,1.464883,5.828866,-66.97821,-24.044296,-648.161743
1733469505,-15.703718,1.96549,11.601104,-5.036239,1.065174,5.553539,-65.443802,-20.4198,-647.464355
1733469505,-16.559945,2.846107,10.110863,-5.344657,0.453516,5.360557,-63.993637,-16.677444,-645.878174
1733469505,-18.417396,3.555389,8.952967,-5.490663,-0.210035,5.212915,-62.555527,-13.251678,-643.81665
1733469506,-21.890335,3.636493,7.740304,-5.642985,-0.586415,4.923615,-61.082214,-10.078781,-641.78125
1733469506,-25.873838,3.22484,7.321768,-6.063146,-0.634188,4.432191,-59.774323,-7.00177,-639.982605
1733469506,-29.15554,3.182044,7.072771,-6.797358,-0.552372,3.755273,-58.855927,-4.261261,-637.04303
1733469506,-31.76537,3.581726,5.807884,-7.571838,-0.4925,2.950971,-57.587509,-1.954529,-633.805725
1733469506,-33.741334,4.944775,3.527407,-8.197525,-0.599622,2.07187,-57.196991,-0.000259,-630.180664
1733469506,-35.022232,7.080552,0.512658,-8.556434,-0.94311,1.253046,-57.024155,1.358261,-625.641724
1733469506,-36.321835,9.138219,-3.414281,-8.599804,-1.258088,0.485483,-57.268173,2.228912,-622.778198
1733469506,-37.590762,10.421361,-8.027758,-8.344802,-1.277484,-0.308995,-57.651382,2.574478,-618.85199
1733469506,-38.039974,11.92896,-11.844265,-7.89086,-1.088148,-1.092353,-58.161346,2.453064,-615.73584
1733469506,-37.1414,13.586945,-14.829087,-7.341634,-0.815073,-1.755057,-58.937775,1.62973,-612.789124
1733469506,-34.483836,15.55423,-19.341558,-6.649273,-0.352681,-2.296034,-60.345703,0.509399,-610.652832
1733469506,-34.483836,15.55423,-19.341558,-5.925256,0.136753,-2.774603,-61.749619,-0.719559,-608.915588
1733469506,-30.736761,17.193959,-19.650859,-5.274353,0.516026,-3.173012,-63.482788,-2.140579,-608.041138
1733469506,-28.952781,17.464354,-19.269732,-4.681556,0.876412,-3.511553,-65.306717,-3.634277,-606.826538
1733469506,-27.084855,17.741034,-18.731935,-3.692741,1.302495,-4.126619,-67.175705,-5.481293,-606.42157
1733469506,-24.976312,18.371906,-18.553267,-3.20945,1.323462,-4.354702,-68.952499,-7.644592,-605.485168
1733469506,-22.711547,18.645444,-18.924518,-2.691007,1.319006,-4.504008,-70.66954,-9.624664,-605.759216
1733469506,-20.646099,18.312201,-19.70009,-2.122505,1.423072,-4.61298,-72.416779,-11.586563,-605.856323
1733469506,-18.744504,17.892468,-20.246716,-1.522428,1.647099,-4.684668,-74.17421,-13.762024,-606.34729
1733469506,-16.801909,17.672949,-20.160974,-0.900077,1.91912,-4.70441,-75.772812,-15.808701,-607.400269
1733469506,-14.875325,17.648858,-19.430443,-0.279202,2.140291,-4.673831,-77.139679,-17.963104,-608.739136
1733469506,-13.181128,17.46615,-18.263419,0.303452,2.277144,-4.642982,-78.612122,-20.16478,-609.748901
1733469506,-11.848305,17.334319,-16.963817,0.803112,2.411468,-4.637149,-80.015244,-22.350998,-611.25293
1733469506,-10.473884,17.239748,-15.550041,1.219038,2.527818,-4.645777,-81.038467,-24.685715,-612.550903
1733469506,-9.050531,17.225084,-14.180707,1.572092,2.603148,-4.633832,-82.026947,-27.314682,-614.679871
1733469506,-7.599196,17.038486,-12.961909,1.895578,2.617511,-4.579372,-82.72229,-29.422699,-614.856812
1733469506,-6.22657,16.822559,-11.930905,2.220683,2.571753,-4.476749,-83.380859,-31.659866,-617.157227
1733469506,-4.849306,16.512958,-11.08665,2.567146,2.49489,-4.317817,-83.558182,-34.036194,-618.346191
1733469506,-3.533542,16.025439,-10.285191,2.894966,2.446638,-4.113897,-83.825089,-36.391968,-619.594849
