SamplingTime, AccelerationX, AccelerationY, AccelerationZ, GyroX, GyroY, GyroZ, MagneticFieldX, MagneticFieldY, MagneticFieldZ
1733469766,0.179266,-5.347599,-8.251167,-0.46244,0.476355,-0.059589,-10.336578,-49.678467,-656.22937
1733469766,0.067038,-5.207838,-8.178144,-0.572558,0.55458,-0.081918,-10.044357,-49.326721,-656.11615
1733469766,0.193781,-5.259462,-8.250868,-0.696186,0.587806,-0.090183,-9.642075,-48.937943,-655.931396
1733469766,0.401627,-5.461773,-8.532785,-0.803352,0.469283,-0.096469,-9.247986,-48.806442,-656.576294
1733469766,0.115071,-5.802946,-9.381679,-0.907659,0.386494,-0.107899,-9.246429,-48.102127,-656.230652
1733469766,-0.77213,-6.842628,-10.784382,-1.043374,0.640448,-0.194373,-9.219971,-47.589951,-656.00769
1733469766,-1.704372,-7.725341,-11.411064,-1.149005,0.983545,-0.411182,-8.856537,-47.589401,-656.331238
1733469766,-1.429488,-8.094048,-11.723807,-1.028952,0.904463,-0.699062,-8.493942,-46.757904,-655.499573
1733469766,-0.496797,-7.237073,-12.63525,-0.71141,0.599367,-0.866999,-7.339203,-46.030762,-655.220642
1733469766,0.696264,-5.886294,-13.021614,-0.478359,0.324406,-0.752536,-7.805359,-45.781677,-654.794556
1733469766,1.484704,-5.560683,-13.788656,0.06459,0.088497,-0.562361,-7.793259,-45.854568,-654.788696
1733469766,1.474679,-4.617966,-14.260015,0.745185,0.102395,-0.349737,-7.137192,-45.929321,-655.22406
1733469766,2.502988,-3.181894,-13.130999,1.170956,0.030075,0.085746,-7.346268,-46.452774,-654.563965
1733469766,3.223793,-3.923947,-12.443115,1.488001,-0.157625,0.621981,-7.907883,-47.378036,-655.32135
1733469766,2.578705,-5.027823,-12.106879,1.721322,-0.295557,0.836272,-8.14888,-48.317505,-654.602539
1733469766,1.489792,-5.618144,-11.634773,1.943248,-0.368542,0.892271,-8.220047,-49.532471,-654.781311
1733469766,0.231938,-6.012589,-10.638934,2.145188,-0.252365,0.839229,-8.820923,-50.611786,-655.200806
1733469766,-0.266953,-6.758233,-8.684518,2.189272,-0.258034,0.570631,-9.112778,-51.801987,-654.535889
1733469766,-0.560094,-7.500286,-6.182876,1.991804,-0.65653,0.226365,-9.488968,-52.196625,-654.651245
1733469766,-1.617882,-8.128015,-2.790143,1.226929,-1.570656,-0.215616,-10.253067,-52.780869,-654.828003
1733469767,-2.148646,-8.377611,-2.396596,0.353491,-2.46171,-0.684158,-10.796906,-52.606873,-656.206665
1733469767,-1.343297,-7.52722,-4.881927,0.064083,-3.31678,-0.9145,-12.013397,-52.390106,-656.546082
1733469767,-0.072125,-6.599467,-7.447464,0.104767,-3.919685,-0.970111,-13.853653,-52.190338,-658.714905
1733469767,0.551415,-6.509385,-9.510966,0.233227,-4.183819,-1.01026,-15.212463,-51.971191,-659.283997
1733469767,-0.036661,-6.770054,-13.855095,0.001108,-2.686213,-1.065434,-15.485855,-51.960266,-659.000366
1733469767,-0.621595,-5.085284,-11.965172,0.391304,-2.059189,-0.941182,-16.253891,-51.878571,-658.738037
1733469767,-1.460613,-3.961356,-10.476428,0.730271,-1.531204,-0.749573,-16.390457,-52.037552,-659.737549
1733469767,-2.032378,-3.482815,-9.510218,1.119948,-1.365749,-0.511286,-16.634232,-52.541809,-659.008484
1733469767,-2.794931,-2.801366,-8.641721,1.527623,-1.401262,-0.226329,-17.326904,-53.261658,-659.846985
1733469767,-2.691532,-2.112284,-8.393772,1.944251,-1.444515,0.089066,-17.91066,-54.30249,-659.016296
1733469767,-2.731335,-1.612794,-8.24982,2.322654,-1.331279,0.392694,-18.534698,-55.550293,-658.647949
1733469767,-2.689437,-1.414524,-6.687454,2.633707,-1.191501,0.679268,-19.348801,-56.986755,-659.253784
1733469767,-3.160047,-2.360533,-4.952705,2.958444,-1.250779,0.893402,-21.176331,-58.650803,-658.596191
1733469767,-4.211999,-5.736806,-3.550302,2.8346,-1.293764,0.661867,-24.172134,-59.783707,-660.137939
1733469767,-4.349367,-13.817836,0.893336,1.446019,-2.154991,-0.713259,-22.841202,-59.78627,-659.450745
1733469767,-4.279785,-15.549442,0.094272,0.414096,-2.473358,-2.151257,-20.920059,-59.155853,-658.465027
1733469767,-4.899584,-7.155969,-4.304625,0.03459,-1.60641,-2.211458,-21.447723,-59.015228,-659.777039
1733469767,-3.944597,-3.029413,-4.117129,-0.248827,-0.773514,-1.762403,-22.618744,-58.781509,-659.156616
1733469767,-2.09358,-4.095282,-3.607014,-0.681661,-0.3081,-1.772035,-21.833267,-58.133118,-660.143555
1733469767,-0.234482,-4.355651,-4.156933,-0.887213,-0.043053,-1.777372,-21.270477,-57.565704,-660.245483
1733469767,0.488118,-2.807201,-3.526509,-0.677909,0.103514,-1.336066,-21.399033,-57.26889,-659.07843
1733469767,0.669329,-1.790115,-0.991499,-0.404163,-0.195002,-0.860079,-21.887299,-57.025925,-660.334106
1733469767,0.40477,-1.398363,2.231994,-0.384703,-1.103621,-0.557566,-22.621689,-56.976822,-660.149475
1733469767,-0.435445,-2.230648,3.453786,-0.513116,-2.322553,-0.427435,-24.159195,-56.470337,-661.041809
1733469767,-2.274043,-3.461417,1.724274,-0.643454,-3.121267,-0.57664,-25.337921,-56.003174,-661.768372
1733469767,-3.886388,-3.453935,-0.058658,-0.766349,-3.441418,-0.930232,-26.72438,-55.425064,-661.255005
1733469767,-4.262128,-2.746598,-1.200842,-0.837277,-3.436352,-1.283588,-27.950516,-54.871918,-662.329712
1733469767,-3.358466,-2.482787,-1.952023,-0.886403,-3.17633,-1.475235,-28.962921,-54.401413,-662.21167
1733469767,-1.714099,-2.326865,-1.961599,-0.973961,-2.890869,-1.495646,-30.162064,-53.813171,-663.025269
1733469767,-0.163255,-1.610699,-1.477522,-1.06572,-2.684803,-1.3657,-31.508621,-53.134277,-663.23584
1733469767,1.365593,-0.116717,-0.217274,-1.135133,-2.718708,-1.073919,-32.759506,-52.536667,-663.313904
1733469767,2.570175,0.113425,0.98267,-1.377249,-2.760306,-0.745723,-34.286758,-51.799469,-664.184265
1733469767,3.130868,-0.186,2.523638,-1.781876,-3.103825,-0.410536,-36.016296,-50.681564,-663.925232
1733469767,2.483984,0.7431,3.176208,-2.249861,-3.531539,-0.13782,-37.847748,-49.558731,-664.703613
1733469767,2.046294,1.748066,3.5509,-2.752119,-4.218506,0.076946,-40.356476,-47.974731,-664.605469
1733469767,2.145803,3.064578,1.510292,-3.072542,-4.979204,0.388839,-42.869095,-46.532181,-665.049805
1733469767,1.777695,3.273472,-2.355894,-3.000056,-5.460467,0.702652,-45.528824,-45.110931,-664.392273
1733469767,0.807893,3.508403,-3.44765,-2.639572,-6.024269,1.006218,-48.297806,-44.026718,-663.559631
1733469767,-0.070928,3.879355,-5.892729,-2.286475,-6.098282,1.259028,-50.942917,-42.869781,-662.035278
1733469767,0.46657,4.480898,-6.191256,-2.079709,-6.017984,1.618492,-53.321014,-41.198608,-661.507202
1733469767,0.77617,5.632509,-6.66037,-1.951999,-5.780771,2.173275,-55.42186,-39.929413,-660.648315
1733469767,1.15191,6.579416,-7.1226,-1.920652,-5.210332,3.599394,-57.876862,-38.39653,-658.826599
1733469767,0.25199,8.437915,-6.013187,-2.063679,-5.244558,4.345504,-59.879684,-36.555603,-658.040161
1733469767,-1.287781,9.466673,-6.894852,-2.071777,-5.300745,5.050101,-61.508011,-34.361084,-656.524231
1733469767,-2.864064,10.509049,-8.445846,-1.935,-5.22163,5.757913,-62.52092,-31.965668,-654.376343
1733469767,-2.864064,10.509049,-8.445846,-1.935,-5.22163,5.757913,-63.327072,-29.188171,-653.260254
1733469767,-7.720103,12.939313,-12.193819,-1.834505,-4.262988,7.009293,-64.150452,-26.327866,-651.43988
1733469767,-10.652551,12.934076,-14.895526,-1.79382,-3.643039,7.339236,-64.43309,-23.596588,-650.129944
1733469767,-13.732243,12.891878,-17.749564,-1.468518,-3.109285,7.406959,-64.181229,-21.060898,-648.879578
1733469767,-16.176573,12.701539,-20.704906,-0.637022,-2.684674,7.270032,-63.553909,-18.255524,-648.287903
1733469767,-18.848353,12.305748,-22.815245,0.611226,-2.187833,6.957482,-62.591553,-16.310928,-647.443176
1733469767,-20.798131,11.709442,-22.519412,1.838386,-1.651411,6.552741,-61.553925,-14.978485,-647.475464
1733469767,-21.993136,11.254394,-20.187459,2.697093,-1.255002,6.036422,-60.550888,-14.141373,-646.850647
1733469767,-22.695386,11.438747,-17.024869,3.167149,-1.118352,5.484873,-59.5345,-13.493057,-647.777588
1733469767,-22.914605,11.812243,-14.859613,3.450335,-1.15492,5.071261,-58.260178,-13.214554,-648.385925
1733469767,-23.459435,12.398074,-13.974057,3.721058,-1.176401,4.787024,-57.084122,-13.215912,-649.192871
1733469767,-25.153782,12.239608,-13.028048,4.016036,-1.318422,4.478573,-56.226028,-13.430832,-649.754028
1733469767,-27.303027,11.633127,-12.933627,4.332845,-1.37258,4.049004,-55.572174,-14.023758,-649.606384
1733469767,-29.431771,10.64881,-12.993482,4.585781,-1.22418,3.510583,-55.037277,-14.831238,-651.7229
1733469767,-31.464149,8.99322,-12.858958,4.698514,-0.837361,2.774547,-54.821991,-15.859116,-652.709961
1733469767,-32.18241,7.980772,-12.011859,4.656596,-0.43886,1.923035,-54.298309,-17.234436,-653.540527
1733469767,-31.564706,8.275259,-11.16087,4.672251,-0.091755,1.202465,-53.854034,-18.669022,-654.132812
1733469767,-30.491655,8.900295,-10.349236,4.855605,0.183361,0.691039,-53.444046,-20.680588,-655.578308
1733469767,-29.397504,9.614066,-9.153482,5.142489,0.377458,0.342187,-53.207382,-22.644852,-655.997314
1733469767,-28.807184,9.850195,-7.503578,5.384109,0.463183,0.021772,-53.005722,-25.120926,-657.865662
1733469767,-28.544271,9.467122,-5.950489,5.500626,0.492364,-0.408906,-53.101517,-27.527298,-658.759094
1733469767,-28.200404,9.277382,-4.661211,5.535184,0.49017,-0.905095,-53.248932,-30.228104,-659.457153
1733469767,-27.431266,9.371205,-3.149722,5.510533,0.422417,-1.415406,-53.067505,-33.068115,-659.73584
1733469767,-26.662129,9.417892,-1.780987,5.405176,0.267175,-1.952384,-52.86908,-35.840927,-660.50769
1733469767,-25.621848,9.355792,-1.278803,5.322645,0.184158,-2.467957,-53.268692,-38.906555,-660.241455
1733469767,-24.31207,9.095722,-0.655413,5.239665,0.115602,-2.962232,-53.107788,-41.807053,-660.374512
1733469767,-22.822877,9.230994,0.070629,5.157375,0.070739,-3.396971,-53.267975,-44.906952,-659.705322
1733469767,-21.154717,9.431957,0.886603,5.081813,0.061079,-3.734159,-53.451767,-47.993774,-659.837585
1733469767,-19.596541,9.276933,2.029535,4.952731,-0.008348,-4.022125,-53.149582,-50.982086,-659.095947
1733469767,-18.047642,8.869619,3.093907,4.751715,-0.12877,-4.300505,-52.945419,-53.883652,-658.861084
1733469767,-16.537349,8.400805,3.832369,4.488306,-0.26298,-4.555484,-52.628983,-56.758911,-658.274841
1733469767,-15.221287,7.924658,4.466682,4.18184,-0.388523,-4.797861,-52.205948,-59.433609,-657.627258
1733469767,-14.075212,7.34571,4.923825,3.841717,-0.523507,-5.049714,-51.557968,-62.174072,-655.811523
1733469767,-12.830676,6.897246,5.291335,3.498361,-0.70745,-5.299779,-50.739014,-64.332245,-656.213074
1733469767,-11.456554,6.69763,5.560833,3.195134,-0.955611,-5.506579,-49.685715,-66.717072,-654.908386
1733469767,-9.801413,6.806117,5.696404,2.942631,-1.232928,-5.615543,-48.824905,-68.5392,-653.960876
1733469767,-8.008305,6.735488,5.878663,2.696108,-1.553529,-5.617054,-48.200531,-70.334976,-652.986816
1733469767,-6.408081,6.469432,5.948843,2.424493,-1.833794,-5.514419,-47.13237,-71.899155,-651.694092
1733469767,-5.19856,6.229114,6.070798,2.092955,-2.017151,-5.341522,-46.189758,-73.380569,-651.332275
1733469767,-4.466982,5.812673,6.131999,1.684933,-2.094688,-5.151737,-45.185944,-74.596512,-650.165405
1733469767,-3.926042,5.213224,5.886594,1.226721,-2.000356,-4.964938,-44.392776,-75.509567,-649.83783
1733469767,-3.562871,4.716278,5.585822,0.765764,-1.769238,-4.799838,-43.513031,-76.267746,-649.057617
1733469767,-3.374777,4.184915,5.610363,0.305531,-1.502656,-4.6978,-42.229218,-76.950958,-649.612549
1733469767,-3.12982,3.876961,5.872677,-0.120197,-1.350892,-4.636291,-41.282181,-77.070023,-650.187622
1733469767,-2.397494,4.122516,6.093393,-0.475923,-1.350978,-4.55163,-40.101166,-77.232742,-649.829224
1733469767,-1.488146,4.281431,6.306477,-0.762708,-1.545866,-4.430142,-39.043152,-77.303818,-650.277222
1733469767,-0.614562,3.96375,6.30528,-0.997017,-1.897303,-4.294538,-39.043152,-77.303818,-650.277222
1733469767,-0.07437,3.576638,5.933131,-1.1959,-2.306917,-4.149011,-38.541412,-77.046219,-650.84491
1733469767,0.291494,3.324798,5.096358,-1.366634,-2.612865,-3.995152,-37.796356,-76.59668,-651.138855
1733469767,0.637905,2.961328,4.184167,-1.512465,-2.778314,-3.827815,-37.432755,-76.194168,-651.688416
1733469767,0.996736,2.603844,3.513641,-1.637492,-2.848624,-3.64241,-36.909286,-75.795624,-652.280762
1733469767,1.307084,2.208651,3.015497,-1.769941,-2.813298,-3.442899,-36.737976,-75.140411,-652.843079
1733469767,1.518971,1.929128,2.687342,-1.922687,-2.706085,-3.245734,-36.480118,-74.497955,-653.450684
1733469767,1.765873,1.677587,2.384924,-2.075587,-2.544065,-3.065825,-36.283401,-73.769455,-654.216797
1733469767,2.164957,1.566855,2.333299,-2.215055,-2.425714,-2.873831,-36.258957,-73.036331,-654.883179
1733469768,2.769044,1.790115,2.49401,-2.315025,-2.413358,-2.646701,-36.23996,-72.175308,-655.647583
1733469768,3.199252,1.950676,2.845958,-2.396482,-2.539123,-2.401977,-36.688492,-71.324921,-655.960999
1733469768,3.856311,2.196381,2.9317,-2.484971,-2.729656,-2.130227,-36.929016,-70.281143,-657.107178
1733469768,4.137629,2.194735,3.248183,-2.639149,-2.969406,-1.846741,-37.35997,-69.004105,-657.728271
1733469768,4.382586,2.211345,3.273921,-2.873958,-3.249652,-1.54889,-38.283752,-67.905548,-658.764709
1733469768,4.641609,2.770241,2.999935,-3.142957,-3.493634,-1.22043,-39.360916,-66.46022,-659.549377
1733469768,4.803517,3.503764,2.603994,-3.438838,-3.734949,-0.868524,-40.629181,-65.135544,-659.976379
1733469768,4.808006,4.469526,1.904438,-3.693473,-4.03164,-0.464094,-41.986511,-63.359116,-660.333496
1733469768,4.782867,5.386355,0.705092,-3.842069,-4.281157,0.005177,-43.47171,-61.620987,-661.101257
1733469768,4.680365,6.142474,-0.551415,-3.877319,-4.461992,0.503076,-45.463211,-59.631744,-661.92572
1733469768,4.722712,6.451027,-1.665616,-3.845339,-4.553597,1.03426,-47.573318,-57.750565,-661.797852
1733469768,4.699818,7.042245,-2.359486,-3.840636,-4.601636,1.621049,-49.810059,-55.723083,-661.68634
1733469768,4.584896,7.937078,-2.701707,-3.935969,-4.630832,2.237846,-51.83786,-53.874161,-661.540771
1733469768,4.200477,9.138368,-3.205537,-4.11676,-4.732773,2.870359,-54.433578,-51.366913,-661.105713
1733469768,3.10094,11.333253,-4.375852,-4.196543,-4.889754,3.532818,-56.664841,-48.656006,-660.510925
1733469768,1.777844,13.496115,-5.953182,-4.027586,-5.023198,4.269331,-58.626297,-46.002197,-659.041077
1733469768,0.254234,15.272912,-6.923882,-3.750141,-5.136399,5.042585,-60.677948,-43.084106,-657.618958
1733469768,-1.270723,16.524032,-7.364864,-3.534782,-5.239565,5.851259,-62.576797,-39.840088,-656.242798
1733469768,-3.399317,17.613543,-8.098537,-3.481165,-5.214023,6.593169,-64.328781,-36.56633,-654.393311
1733469768,-6.148759,18.650532,-9.240122,-3.564792,-4.996905,7.184151,-65.66394,-32.8629,-652.394165
1733469768,-8.867225,19.225589,-11.124808,-3.664675,-4.673284,7.586344,-66.942734,-29.256165,-650.744385
1733469768,-11.492168,18.93185,-14.034062,-3.599877,-4.217258,7.71545,-67.639542,-25.566605,-649.081299
1733469768,-13.475764,18.170195,-16.785897,-3.208622,-3.746317,7.646109,-67.484894,-21.678864,-646.828369
1733469768,-14.659846,17.993922,-19.115605,-2.586962,-3.26608,7.535346,-66.885391,-18.411072,-645.092529
1733469768,-15.307328,17.819594,-21.053861,-1.82988,-2.667639,7.441071,-65.845154,-15.231186,-643.637634
1733469768,-16.044144,18.162264,-21.737705,-1.07582,-1.948343,7.38769,-64.70813,-12.521027,-642.477905
1733469768,-16.828395,18.749143,-20.383634,-0.550576,-1.433292,7.291182,-63.217545,-10.266113,-641.085327
1733469768,-18.334198,20.147057,-17.822736,-0.259684,-1.486935,7.065439,-61.312851,-7.850082,-641.446045
1733469768,-20.27799,21.545421,-16.539444,0.038655,-2.031402,6.678408,-59.76416,-6.208969,-640.268555
1733469768,-21.700146,21.959019,-16.812683,0.517911,-2.858386,6.236428,-58.074173,-4.530899,-639.779785
1733469768,-22.874801,21.921161,-18.502241,1.238781,-3.58168,5.902854,-56.531235,-3.202438,-638.841003
1733469768,-24.841039,21.486314,-20.996999,2.219996,-3.818896,5.677003,-54.683289,-2.159515,-638.935303
1733469768,-27.530326,20.416405,-22.753744,3.324829,-3.465281,5.433414,-53.228577,-1.641022,-638.98877
1733469768,-30.254778,19.338865,-22.813749,4.3441,-2.664978,5.087969,-52.065964,-1.264328,-640.343079
1733469768,-32.297182,18.74615,-20.923826,5.118039,-1.743095,4.633552,-50.901352,-1.690109,-641.536377
1733469768,-33.127521,18.333599,-17.653197,5.65717,-1.088277,4.158213,-49.754105,-2.48262,-643.637329
1733469768,-33.849822,18.355446,-14.491354,6.098249,-0.716595,3.669925,-48.634476,-3.704498,-644.911255
1733469768,-34.819623,18.450915,-11.311855,6.413353,-0.697012,3.110374,-47.54834,-4.962128,-647.57074
1733469768,-35.64682,17.792659,-9.284265,6.642485,-0.815957,2.483018,-47.398026,-6.759064,-649.709656
1733469768,-36.455611,16.456695,-8.621221,6.824855,-0.781746,1.727546,-46.949768,-9.092377,-652.475525
1733469768,-36.510977,14.990246,-8.065467,6.930237,-0.584794,0.857019,-46.877869,-11.568436,-653.995728
1733469768,-35.445557,14.679898,-6.896498,6.996938,-0.424142,-0.013787,-47.12619,-14.418335,-655.838989
1733469768,-33.599179,15.615731,-5.08289,7.066803,-0.42768,-0.767546,-47.085968,-17.483032,-657.493896
1733469768,-31.663916,16.627731,-3.387346,7.108498,-0.512134,-1.372512,-47.613541,-20.829575,-659.124573
1733469768,-29.987825,16.783952,-1.991527,7.06515,-0.578504,-1.921877,-48.302887,-24.340469,-659.985352
1733469768,-28.47439,16.493206,-0.839916,6.927917,-0.613871,-2.454562,-48.774094,-27.970978,-660.718872
1733469768,-26.774806,15.966931,-0.145448,6.773654,-0.567843,-2.959016,-49.764755,-31.744659,-660.651306
1733469768,-25.013422,15.535376,0.589572,6.595375,-0.501666,-3.441474,-50.357376,-35.342438,-661.518188
1733469768,-23.114521,15.114445,1.244835,6.411228,-0.410053,-3.882775,-51.100998,-39.27124,-661.470337
1733469768,-21.076456,14.485968,2.080112,6.226659,-0.343983,-4.275225,-51.138535,-42.924484,-661.312012
1733469768,-19.079992,14.071621,3.225588,6.032147,-0.395444,-4.591067,-51.629837,-46.494537,-661.192871
1733469768,-17.093403,13.751247,4.480748,5.78899,-0.54819,-4.844214,-51.696686,-50.18544,-660.825806
1733469768,-15.05474,12.968044,5.468656,5.479511,-0.799647,-5.046648,-51.580704,-53.435059,-659.852844
1733469768,-13.254151,12.108675,6.17704,5.100725,-1.058468,-5.231063,-51.891129,-56.755722,-658.704529
1733469768,-11.577461,11.28058,6.648698,4.646222,-1.301508,-5.373342,-51.535522,-59.582703,-658.122559
1733469768,-10.073454,10.444106,6.77589,4.133846,-1.452572,-5.486712,-51.10405,-62.256226,-656.927612
1733469768,-8.812907,9.688436,6.653935,3.584187,-1.507501,-5.567733,-50.752441,-64.832352,-654.969971
1733469768,-7.593659,8.909722,6.436961,3.040599,-1.458365,-5.613238,-49.899292,-66.967865,-654.881958
1733469768,-6.519261,7.988553,6.405238,2.518836,-1.375005,-5.638543,-49.056656,-68.849655,-654.037109
1733469768,-5.563975,7.2055,6.584204,2.0249,-1.345978,-5.633413,-48.113861,-70.259445,-653.272095
1733469768,-4.890755,6.646603,6.644209,1.59581,-1.389694,-5.610603,-46.994308,-71.725861,-652.65802
1733469768,-4.37271,6.179135,6.686856,1.2374,-1.514602,-5.589128,-45.881958,-72.76088,-652.276978
1733469768,-3.822343,5.938967,6.691794,0.928571,-1.720162,-5.547989,-44.36824,-73.739868,-651.940308
1733469768,-2.991256,6.055385,6.389825,0.663384,-1.927831,-5.437874,-43.430618,-74.450745,-652.037476
1733469768,-1.926883,5.934627,5.66109,0.406516,-2.007089,-5.263978,-42.633301,-74.998138,-651.408875
1733469768,-0.91653,5.702689,5.040393,0.151536,-1.977785,-5.023387,-41.808228,-75.363251,-651.392822
1733469768,-0.07437,5.423316,4.626944,-0.086371,-1.892076,-4.752294,-40.60025,-75.754517,-650.954346
1733469768,0.542885,4.962581,4.431069,-0.305672,-1.826092,-4.461861,-39.732208,-75.714508,-651.520264
1733469768,1.023521,4.119673,4.340987,-0.519883,-1.776369,-4.20809,-38.844452,-75.651291,-651.820618
1733469768,1.245883,3.189974,4.470423,-0.7625,-1.81634,-3.997369,-38.133804,-75.701813,-651.790039
1733469768,1.309628,2.546233,4.358195,-0.984078,-1.922351,-3.823837,-37.602921,-75.440765,-652.580994
1733469768,1.505803,1.965789,4.168155,-1.165578,-2.041583,-3.680055,-37.184937,-74.962143,-652.809998
1733469768,1.784578,1.513884,4.111443,-1.334166,-2.211953,-3.520037,-36.562454,-74.549667,-653.682007
1733469768,2.153285,1.364396,3.745878,-1.507082,-2.340875,-3.324591,-36.151352,-74.095627,-653.847656
1733469768,2.67552,1.421857,3.165584,-1.668542,-2.385769,-3.080599,-36.331024,-73.163742,-654.268799
1733469768,3.27452,1.30499,2.692729,-1.815754,-2.367234,-2.788821,-36.248444,-72.530807,-655.455078
1733469768,3.664775,1.011251,2.315343,-1.952371,-2.333152,-2.483297,-36.352127,-71.730682,-655.202332
1733469768,3.911677,0.742203,1.993472,-2.062042,-2.291127,-2.189225,-36.441025,-70.952789,-657.088806
1733469768,4.014478,0.392799,1.764976,-2.15638,-2.264133,-1.916308,-36.904587,-70.005234,-657.250183
1733469768,4.024204,0.005986,1.654094,-2.256879,-2.257989,-1.676336,-37.268738,-69.015686,-658.086365
1733469768,4.022708,-0.116119,1.618331,-2.383405,-2.272868,-1.478465,-37.943314,-67.841827,-658.599365
1733469768,4.090344,0.159214,1.533636,-2.519882,-2.305482,-1.292375,-38.454971,-66.802155,-659.349548
1733469768,4.171896,0.755221,1.42859,-2.649305,-2.332445,-1.077797,-39.097885,-65.819199,-660.1698
1733469768,4.365677,1.702128,1.377713,-2.787703,-2.363789,-0.82945,-39.784256,-64.276505,-660.793091
1733469768,4.686051,2.738368,1.32968,-2.957959,-2.389359,-0.534866,-40.782639,-62.939026,-661.045593
1733469768,4.916792,3.886537,1.202637,-3.158022,-2.455427,-0.182653,-41.871201,-61.411942,-661.490112
1733469768,5.489156,4.746954,0.782904,-3.368666,-2.546865,0.226586,-42.905579,-59.867538,-661.472778
1733469768,6.196493,4.846163,0.104297,-3.576311,-2.690066,0.695414,-44.556412,-57.865311,-662.27948
1733469768,6.372018,4.709694,-0.655263,-3.710709,-2.88697,1.145325,-46.06633,-55.986649,-662.408142
1733469768,6.105813,5.28131,-1.23062,-3.758959,-3.08901,1.580309,-47.790314,-54.063019,-663.168579
1733469768,5.630414,6.470929,-1.39582,-3.800867,-3.356161,2.019644,-49.676697,-51.764557,-662.827209
1733469768,5.013309,7.859865,-1.597531,-3.86983,-3.665724,2.471199,-51.30603,-49.62677,-662.905884
1733469768,4.254197,9.169493,-2.143559,-3.909093,-3.960796,2.960471,-53.111847,-47.052536,-662.081787
1733469768,3.539378,10.370634,-2.679112,-3.939702,-4.219509,3.508732,-55.230484,-44.540466,-661.208496
1733469768,2.491915,11.203667,-3.079392,-4.068773,-4.503299,4.07776,-57.437286,-41.679092,-660.467651
1733469768,0.420033,11.831247,-4.105308,-4.295233,-4.782854,4.532361,-59.272034,-38.5168,-659.57605
1733469768,-2.230498,12.265196,-6.195745,-4.411255,-4.933397,4.815678,-61.380875,-35.581589,-657.221558
1733469768,-4.720019,12.858958,-8.43582,-4.336794,-4.985845,4.972564,-62.629822,-32.466049,-656.096863
1733469768,-6.722918,13.612682,-10.439767,-4.085979,-5.009004,5.05526,-63.860565,-29.514862,-654.306519
1733469768,-8.149713,14.838514,-12.128277,-3.692942,-4.998966,5.183776,-64.599396,-26.406723,-651.969604
1733469769,-9.727941,15.815498,-13.996653,-3.230443,-4.835607,5.410306,-64.956528,-23.611938,-650.231506
1733469769,-11.923424,15.878794,-16.505776,-2.751183,-4.299473,5.645908,-65.185822,-20.840714,-648.799133
1733469769,-13.549386,15.609596,-18.784607,-2.340399,-3.404052,5.859416,-64.886765,-18.363205,-646.667175
1733469769,-14.198065,15.104869,-19.985748,-1.991391,-2.427893,6.03778,-64.246155,-15.860596,-646.00415
1733469769,-14.993089,15.274408,-19.70009,-1.622638,-1.735532,6.141824,-63.340714,-13.72197,-645.17511
1733469769,-16.440833,16.248399,-18.035222,-1.270909,-1.642786,6.098624,-62.543015,-11.681656,-644.257751
1733469769,-17.836503,16.185851,-16.80146,-0.871651,-2.155172,5.872092,-61.395386,-9.880173,-642.38855
1733469769,-18.967165,16.829143,-17.063026,-0.343161,-2.846283,5.630295,-60.457306,-8.199417,-642.055115
1733469769,-19.923948,17.395222,-18.199075,0.242314,-3.282756,5.482236,-59.719971,-6.95108,-641.037292
1733469769,-20.939837,16.887801,-19.14254,0.772309,-3.378371,5.304251,-58.780075,-5.690384,-640.837769
1733469769,-21.639393,16.791584,-19.642479,1.232672,-3.224083,5.083099,-58.362656,-4.956192,-640.458008
1733469769,-22.131102,16.784551,-19.930681,1.648834,-3.005472,4.74635,-57.736084,-4.208206,-640.269653
1733469769,-22.423644,16.919973,-20.273651,2.239832,-2.996312,4.303889,-56.501144,-4.030136,-640.725403
1733469769,-21.612608,17.361104,-21.167287,3.240115,-3.027123,4.060544,-55.666077,-4.112106,-641.139526
1733469769,-21.436933,18.049886,-20.890906,4.55121,-2.920939,4.086067,-54.583344,-4.472885,-642.402466
1733469769,-22.851907,18.369961,-18.545935,5.805374,-2.59081,4.238365,-53.521866,-5.122925,-644.349121
1733469769,-25.623644,18.179323,-14.954483,6.631744,-1.940557,4.312505,-52.992462,-6.422226,-645.850342
1733469769,-29.193249,17.465103,-10.697742,6.862782,-1.269259,4.03296,-52.716827,-7.698654,-648.406128
1733469769,-31.714792,16.170887,-7.239318,6.630669,-0.78425,3.399947,-52.076187,-9.541122,-650.312256
1733469769,-32.773329,15.117289,-4.833444,6.238192,-0.672179,2.536475,-51.557602,-11.247696,-652.651978
1733469769,-32.786796,14.516344,-3.468151,5.966627,-1.02928,1.573345,-51.178238,-13.07193,-653.214233
1733469769,-31.763873,14.744242,-4.080617,6.044641,-1.48191,0.826939,-51.235535,-15.272705,-654.61084
1733469769,-30.752772,15.338752,-5.525967,6.413888,-1.589783,0.359793,-51.160599,-17.970413,-655.758606
1733469769,-30.638449,15.947029,-5.824344,6.835831,-1.263271,0.122704,-51.319916,-20.918976,-657.281921
1733469769,-31.59179,15.947927,-4.803367,7.104168,-0.611952,-0.140896,-51.879578,-24.337021,-658.916809
1733469769,-32.726492,15.200487,-2.707992,7.119577,0.054708,-0.641776,-51.879791,-27.622894,-659.454163
1733469769,-33.005417,14.754118,-0.215478,6.961508,0.477456,-1.345382,-51.945831,-31.297668,-659.442139
1733469769,-32.214432,14.652963,2.193238,6.727567,0.533054,-2.181152,-52.10968,-34.709976,-660.488892
1733469769,-30.501082,14.842704,4.051139,6.454733,0.221819,-3.017361,-52.475876,-38.373032,-660.640076
1733469769,-28.195017,14.985458,4.474613,6.252823,-0.170264,-3.710164,-52.901596,-42.231812,-660.178467
1733469769,-25.734077,14.872033,4.188357,6.150026,-0.420336,-4.248363,-52.990204,-45.904541,-659.972656
1733469769,-23.397785,14.526519,4.345177,6.046478,-0.547631,-4.673335,-53.158142,-49.49826,-659.73645
1733469769,-21.10803,14.055011,4.605247,5.867789,-0.502574,-5.012114,-53.087646,-52.846283,-658.539978
1733469769,-18.883368,13.574824,5.262455,5.572278,-0.376305,-5.279363,-52.789139,-56.228729,-657.722229
1733469769,-16.69417,13.113042,6.16896,5.175188,-0.279248,-5.477921,-52.206223,-59.479126,-656.9953
1733469769,-14.731822,12.599636,6.951265,4.712797,-0.243244,-5.639069,-51.514694,-62.352325,-655.907227
1733469769,-12.926893,12.016947,7.555203,4.203837,-0.303711,-5.771046,-50.483643,-65.001938,-654.723633
1733469769,-11.102512,11.265617,7.785944,3.69485,-0.467153,-5.877456,-49.672272,-67.128098,-654.64032
1733469769,-9.393351,10.527305,7.749731,3.227277,-0.70779,-5.944516,-48.408875,-69.208862,-653.862061
1733469769,-7.858219,9.868001,7.631817,2.79171,-0.989559,-5.966559,-47.193146,-70.992401,-653.029968
1733469769,-6.366332,9.291448,7.282114,2.35386,-1.205034,-5.927639,-45.792618,-72.392044,-652.245361
1733469769,-4.986524,8.743774,6.922684,1.892809,-1.332925,-5.826662,-44.670395,-73.57547,-651.769592
1733469769,-3.998616,8.177396,6.566248,1.434881,-1.419959,-5.678041,-43.497803,-74.491745,-650.488892
1733469769,-3.141492,7.513005,5.886893,1.033375,-1.398959,-5.513498,-43.497803,-74.491745,-650.488892
1733469769,-2.470068,6.773496,5.432892,0.685638,-1.336184,-5.358231,-42.236481,-75.230911,-651.077087
1733469769,-1.966088,6.198738,5.272032,0.377525,-1.318232,-5.222741,-40.749435,-75.743591,-650.833496
1733469769,-1.551592,5.767931,5.17776,0.118193,-1.374289,-5.111766,-39.591537,-75.989212,-650.505676
1733469769,-1.167173,5.12419,5.125686,-0.094445,-1.503166,-5.028193,-38.433746,-76.399048,-650.736389
1733469769,-0.706589,4.527286,5.059547,-0.281522,-1.700323,-4.950945,-37.258514,-76.592773,-650.65686
1733469769,-0.164452,4.144213,4.769399,-0.446034,-1.886344,-4.847125,-36.282516,-76.221283,-650.669495
1733469769,0.435745,3.76563,4.434361,-0.615605,-1.988839,-4.712896,-35.253525,-76.076447,-651.171265
1733469769,1.086219,3.47264,4.258686,-0.82182,-2.038309,-4.547515,-34.091888,-75.709122,-651.391724
1733469769,1.74672,3.287688,4.149002,-1.080538,-2.055921,-4.351071,-33.213959,-75.258606,-652.128235
1733469769,2.272247,3.126229,4.060566,-1.350024,-2.116291,-4.124823,-32.792374,-74.755173,-652.026123
1733469769,2.822614,2.880225,3.713107,-1.56845,-2.200023,-3.894433,-32.31395,-73.899521,-653.163757
1733469769,3.335123,2.334945,3.429694,-1.735067,-2.353549,-3.665844,-32.273636,-73.03244,-654.03418
1733469769,3.787178,1.690905,3.199851,-1.859079,-2.589666,-3.436905,-32.132431,-72.153061,-654.660522
1733469769,4.118775,1.191265,2.758719,-1.953773,-2.812798,-3.196327,-32.07373,-71.176117,-655.343872
1733469769,4.529381,0.971747,2.111387,-2.050124,-2.912532,-2.921103,-32.094025,-70.158234,-656.331543
1733469769,5.105036,1.013645,1.647809,-2.184339,-2.911317,-2.579072,-32.6259,-69.062057,-656.886841
1733469769,5.624129,1.146673,1.265485,-2.339525,-2.827228,-2.176216,-32.985977,-68.066635,-657.847961
1733469769,6.002264,1.225382,0.945859,-2.51909,-2.689464,-1.765435,-33.714981,-66.854904,-658.726685
1733469769,6.180033,1.475726,0.720954,-2.694235,-2.575804,-1.353102,-34.715179,-65.830612,-659.032715
1733469769,6.467188,1.818247,0.517297,-2.826523,-2.529636,-0.940365,-35.326477,-64.584625,-659.33429
1733469769,6.704812,2.094328,0.328455,-2.913682,-2.576773,-0.514072,-36.2173,-62.902328,-660.383118
1733469769,6.820033,2.531419,0.0621,-2.950943,-2.680507,-0.053815,-37.504913,-61.653168,-661.237183
1733469769,6.811354,2.92751,-0.211139,-2.968775,-2.775668,0.4321,-38.971008,-60.146973,-661.946106
1733469769,6.715137,3.122189,-0.412252,-3.032316,-2.816591,0.911295,-40.260666,-58.50975,-662.25116
1733469769,6.58585,3.163937,-0.493954,-3.180295,-2.843907,1.382796,-41.92514,-57.095154,-662.857178
1733469769,6.119579,3.619285,-0.798017,-3.393142,-2.816424,1.800006,-43.734238,-55.191635,-663.260315
1733469769,5.598541,4.332757,-0.98686,-3.614343,-2.807951,2.160209,-45.402588,-53.302338,-663.447876
1733469769,5.108478,5.149928,-1.129315,-3.803038,-2.908177,2.479318,-46.789978,-51.259781,-663.60675
1733469769,4.416105,6.388777,-1.380706,-3.889478,-3.103328,2.790843,-48.639374,-49.038696,-663.169006
1733469769,3.74109,7.673267,-1.457171,-3.913537,-3.425729,3.13048,-49.969528,-46.685669,-662.725159
1733469769,2.895039,8.682123,-1.529895,-3.929173,-3.882633,3.531735,-51.962875,-44.112656,-662.726746
1733469769,1.558326,9.565135,-2.25459,-3.966733,-4.202158,3.9738,-53.744766,-41.376068,-661.775574
1733469769,-0.169988,10.668413,-3.084779,-4.13646,-4.258635,4.395723,-55.680374,-38.553253,-660.452393
1733469769,-1.90354,11.638364,-3.934122,-4.446502,-4.14461,4.742037,-57.206223,-35.496384,-660.030823
1733469769,-3.484312,12.256367,-5.30989,-4.723742,-3.99731,4.974509,-59.023743,-32.264084,-658.737915
1733469769,-4.730344,12.509255,-7.093122,-4.73464,-3.920067,5.093594,-60.181396,-29.18103,-657.043213
1733469769,-5.603479,12.353332,-8.576779,-4.390991,-4.044701,5.115577,-60.961273,-26.244934,-655.562134
1733469769,-6.539612,12.694506,-9.475951,-3.750867,-4.309555,5.166571,-61.530228,-23.454849,-653.690735
1733469769,-7.811981,13.929166,-9.530419,-3.120871,-4.548809,5.247157,-61.861313,-20.922989,-652.32251
1733469769,-8.672996,15.069405,-9.37704,-2.79691,-4.576001,5.407003,-62.007477,-18.109482,-649.124329
1733469769,-9.310601,16.715119,-9.92217,-2.826269,-4.228679,5.676972,-61.917267,-15.604263,-648.007629
1733469769,-10.423007,18.421586,-10.994324,-3.015836,-3.726437,5.942669,-61.385178,-12.996902,-645.987183
1733469769,-12.000637,19.697696,-12.516437,-2.693933,-3.332674,6.195125,-60.792572,-10.439301,-644.378052
1733469769,-13.488034,20.278439,-14.71207,-2.693933,-3.332674,6.195125,-59.738464,-7.943222,-642.025085
1733469769,-14.687529,20.494067,-16.842012,-2.036418,-3.31524,6.220701,-58.584793,-6.000443,-641.082825
1733469769,-16.12001,21.006875,-18.768745,-1.286294,-3.063635,6.238169,-56.724396,-3.925903,-640.14325
1733469769,-17.910873,21.706431,-19.620632,-0.710755,-2.538432,6.190514,-55.560928,-2.316711,-639.056519
1733469769,-20.372561,22.80926,-18.883966,-0.433455,-2.162692,5.968983,-54.061539,-1.023224,-638.424316
1733469769,-22.916849,22.801778,-18.729989,-0.138629,-2.240003,5.50272,-52.711105,-0.034271,-638.095154
1733469769,-25.342625,21.644182,-22.085762,0.523609,-2.635568,4.787739,-51.530426,0.671234,-637.836731
1733469769,-24.929924,21.239262,-23.693169,2.989342,-3.709241,3.666416,-50.124268,0.923965,-637.814941
1733469769,-25.345767,20.086454,-24.816648,4.396733,-3.482092,3.548388,-49.07402,0.959076,-638.630066
1733469769,-26.908432,18.767848,-23.411252,5.448377,-2.689462,3.495412,-48.399002,0.591248,-640.370361
1733469769,-29.021166,17.796699,-20.516213,6.022715,-1.594302,3.300231,-47.465546,-0.496567,-642.112305
1733469769,-30.589069,17.026664,-17.044322,6.216283,-0.611481,2.87891,-47.03479,-1.958282,-644.538635
1733469769,-31.159188,17.09879,-13.430125,6.278148,-0.099951,2.360298,-46.204895,-3.363342,-647.24469
1733469770,-31.242835,17.768867,-10.351481,6.388248,-0.087011,1.823335,-45.471481,-5.383743,-649.059326
1733469770,-31.342045,18.090288,-8.181885,6.566426,-0.40785,1.282048,-44.770462,-7.295776,-651.36377
1733469770,-31.43916,17.776798,-7.199963,6.737808,-0.745399,0.731916,-44.564285,-9.719299,-653.508545
1733469770,-31.727661,17.113604,-6.805219,6.883744,-0.909267,0.11677,-44.517593,-12.332275,-655.402405
1733469770,-31.588199,16.850391,-6.524648,6.985728,-0.813934,-0.520715,-44.599045,-15.376724,-657.098877
1733469770,-30.970644,16.720356,-5.616199,7.034057,-0.604061,-1.174955,-45.422699,-18.44043,-658.277283
1733469770,-29.883827,16.731429,-4.113089,7.064101,-0.434145,-1.795775,-45.702103,-22.021683,-659.528931
1733469770,-28.558636,17.041329,-2.468572,7.092983,-0.321279,-2.340663,-46.050613,-25.379807,-660.622681
1733469770,-27.298687,16.968605,-0.78455,7.084999,-0.235368,-2.838252,-46.684204,-29.226929,-661.119812
1733469770,-25.957785,16.535853,0.889895,6.994106,-0.144968,-3.333906,-47.297043,-32.98671,-661.718872
1733469770,-24.58875,16.135124,2.516306,6.807914,-0.058982,-3.821395,-47.749527,-36.9133,-661.891846
1733469770,-22.978201,15.616779,3.859603,6.544477,0.081976,-4.259619,-47.965164,-40.810654,-662.285828
1733469770,-20.994006,15.103372,5.226542,6.544477,0.081976,-4.259619,-47.93187,-44.542267,-661.967041
1733469770,-18.803012,14.37359,6.647501,5.821327,0.272378,-4.906969,-48.112564,-48.06456,-661.712097
1733469770,-16.375442,13.565996,7.626729,5.3959,0.186901,-5.128211,-47.865906,-51.276794,-660.847778
1733469770,-13.989021,12.864494,8.224532,4.989449,0.021178,-5.270845,-47.385025,-54.516785,-660.6427
1733469770,-11.931354,11.981034,8.74138,4.589756,-0.211342,-5.347029,-47.166519,-57.370773,-660.085571
1733469770,-10.096498,11.046547,9.327959,4.138493,-0.49401,-5.39515,-46.50415,-60.048187,-659.088318
1733469770,-8.405144,10.163536,9.945214,3.595714,-0.843652,-5.40599,-45.906754,-62.413864,-658.384521
1733469770,-6.79235,9.407118,10.039636,2.997514,-1.155158,-5.35519,-45.156876,-64.369461,-657.706299
1733469770,-5.470302,8.736591,9.677513,2.368483,-1.344202,-5.258678,-44.436844,-66.018631,-656.83783
1733469770,-4.38932,8.009502,9.11697,1.71275,-1.401852,-5.136115,-44.121063,-67.426773,-656.639771
1733469770,-3.571251,7.217171,8.528745,1.063099,-1.366843,-5.027054,-43.02652,-68.395218,-655.763306
1733469770,-2.952649,6.699724,7.699902,0.494895,-1.298219,-4.906997,-42.537674,-68.99324,-655.979736
1733469770,-2.272846,6.256049,6.663512,0.069051,-1.184159,-4.789638,-41.690231,-69.485229,-655.582764
1733469770,-1.578228,5.865046,5.953781,-0.243008,-1.114329,-4.66047,-40.537552,-69.722382,-655.800903
1733469770,-0.922665,5.406257,5.315726,-0.451947,-1.090806,-4.515721,-40.124619,-69.816345,-656.083435
1733469770,-0.488866,4.799477,4.746505,-0.582292,-1.097378,-4.381486,-39.378845,-69.854843,-656.243958
1733469770,-0.209044,4.280384,4.468777,-0.665721,-1.154383,-4.274821,-38.439606,-69.661438,-656.268372
1733469770,0.081104,3.933973,4.480898,-0.726763,-1.312073,-4.180707,-37.993805,-69.514267,-657.008057
1733469770,0.502782,3.671209,4.501398,-0.78728,-1.578429,-4.078518,-37.529922,-69.129501,-656.978577
1733469770,1.099387,3.490746,4.288614,-0.838103,-1.895123,-3.944199,-36.943848,-69.134079,-657.410889
1733469770,1.811513,3.283348,3.846435,-0.859956,-2.178934,-3.766276,-36.547638,-68.817398,-656.917542
1733469770,2.553266,3.19596,3.482366,-0.91385,-2.353962,-3.530378,-36.765503,-68.405182,-657.648743
1733469770,3.166481,3.265541,3.402011,-1.042682,-2.494065,-3.240855,-36.606415,-67.700531,-657.976318
1733469770,3.730166,3.18788,3.206435,-1.248271,-2.561912,-2.93042,-37.004822,-67.182098,-658.447205
1733469770,4.242675,3.027468,2.915389,-1.49623,-2.573639,-2.578812,-37.016754,-66.859482,-658.865234
1733469770,4.66989,2.831143,2.521992,-1.746934,-2.53265,-2.214635,-37.530258,-66.053421,-659.231995
1733469770,4.88043,2.612224,2.211494,-1.976841,-2.475215,-1.848446,-38.176697,-65.259796,-659.942261
1733469770,5.032013,2.50643,2.009034,-2.152273,-2.475068,-1.493995,-38.965698,-64.281357,-660.650269
1733469770,5.266047,2.351555,1.727117,-2.269493,-2.530608,-1.125276,-40.018204,-63.156326,-660.716492
1733469770,5.517587,2.23813,1.399411,-2.364171,-2.585555,-0.727787,-40.713272,-62.187469,-661.081116
1733469770,5.461324,2.4774,1.268478,-2.481807,-2.64452,-0.346715,-41.908997,-61.059509,-660.97229
1733469770,5.459678,2.873491,1.28015,-2.655005,-2.686747,0.007639,-43.066193,-59.832047,-661.893982
1733469770,5.449502,3.250578,1.4865,-2.903007,-2.760245,0.352163,-44.283051,-58.520828,-662.417358
1733469770,5.064934,4.325125,1.610849,-3.225023,-2.866428,0.694908,-45.692902,-56.77803,-662.395325
1733469770,4.884171,5.498434,1.419313,-3.583872,-2.984519,1.044012,-47.166718,-54.959549,-662.376648
1733469770,5.036502,6.105364,0.764947,-3.927976,-3.12184,1.457915,-48.615784,-52.809937,-662.58728
1733469770,5.097255,6.550236,-0.267851,-4.230227,-3.254269,1.905621,-50.574844,-50.648834,-662.235718
1733469770,5.017199,7.130681,-1.467047,-4.457561,-3.415152,2.370291,-52.101654,-48.157684,-662.608704
1733469770,4.629937,7.897424,-2.757222,-4.590173,-3.667383,2.838328,-54.119644,-45.527725,-662.104126
1733469770,3.789872,8.697237,-4.179229,-4.569079,-4.00724,3.271475,-56.053925,-42.721359,-661.071167
1733469770,2.491765,9.613019,-5.631013,-4.332192,-4.405194,3.64864,-57.818558,-40.162292,-659.365967
1733469770,1.331326,10.869526,-6.761076,-3.913552,-4.836532,4.023355,-59.409698,-37.218079,-658.725098
1733469770,0.464774,12.192173,-7.277326,-3.461152,-5.282495,4.507375,-60.873764,-34.585938,-656.9729
1733469770,-0.852785,13.698126,-7.912986,-3.207045,-5.429071,5.170904,-62.663803,-31.608459,-654.910645
1733469770,-3.094206,14.840908,-8.747665,-3.419033,-5.063136,5.816223,-63.734253,-28.493881,-653.313782
1733469770,-5.481225,15.289222,-10.152911,-4.011419,-4.339925,6.303301,-64.73587,-24.844238,-650.791138
1733469770,-8.084022,16.118663,-12.774413,-4.619911,-3.468603,6.578069,-64.565308,-21.374191,-649.293884
1733469770,-10.960506,17.618481,-16.092477,-4.909907,-2.818377,6.634715,-63.928391,-17.627014,-647.477173
1733469770,-13.322685,19.073258,-19.802741,-4.640791,-2.529974,6.613307,-62.774811,-14.110931,-645.831421
1733469770,-15.542708,20.27395,-23.529316,-3.91327,-2.399295,6.549871,-61.752716,-11.156418,-643.702148
1733469770,-17.651701,20.051888,-26.904392,-2.901328,-2.190723,6.425598,-59.983063,-8.762115,-641.618958
1733469770,-19.808876,19.312678,-29.348872,-1.808719,-1.661619,6.236106,-58.668365,-6.600189,-641.120361
1733469770,-22.003611,18.788348,-29.359796,-0.919707,-1.14964,5.894306,-57.102859,-4.804031,-640.493225
1733469770,-24.192959,18.62629,-27.925968,-0.139298,-1.037193,5.305138,-55.654266,-3.870865,-640.528198
1733469770,-24.971523,18.658612,-26.664673,0.721895,-1.413564,4.612381,-54.654816,-2.902893,-640.260254
1733469770,-24.539669,18.742858,-25.594016,1.740023,-2.148723,3.98912,-53.655045,-2.800568,-640.596497
1733469770,-23.801806,18.971355,-25.34442,2.899677,-2.777293,3.620059,-52.498657,-2.747253,-640.82373
1733469770,-23.506721,18.508526,-25.194783,4.094919,-2.885644,3.550642,-51.477875,-3.065628,-642.023132
1733469770,-24.538322,17.613244,-23.703345,5.093814,-2.383633,3.624798,-50.787354,-3.68544,-643.519775
1733469770,-26.659585,16.798766,-21.111621,5.770393,-1.432065,3.710713,-49.767502,-4.805573,-645.634216
1733469770,-29.467535,16.003742,-18.034773,6.141986,-0.302435,3.596998,-48.87767,-6.462601,-647.229492
1733469770,-32.023944,15.300744,-14.194324,6.18886,0.586169,3.132277,-48.108719,-7.896805,-649.810608
1733469770,-32.847848,14.703391,-10.396372,6.015667,1.026654,2.472308,-46.548386,-9.771713,-652.320435
1733469770,-32.568475,14.766089,-7.277026,5.810602,0.964708,1.804702,-45.784805,-11.94693,-653.845215
1733469770,-31.809812,14.603433,-5.29373,5.676316,0.557368,1.189021,-45.241791,-13.921021,-655.73584
1733469770,-30.878019,14.03481,-4.601356,5.621335,0.072681,0.633868,-45.273453,-16.312759,-656.644043
1733469770,-30.512155,13.447034,-4.735731,5.616133,-0.320444,0.022099,-45.381836,-18.507889,-657.919189
1733469770,-29.774741,13.363087,-5.422268,5.682951,-0.43399,-0.577864,-45.450256,-21.33287,-659.487305
1733469770,-28.743289,13.721918,-5.677849,5.821152,-0.31185,-1.09679,-45.796677,-24.205612,-660.264282
1733469770,-27.711388,13.878888,-4.871751,5.974198,-0.160254,-1.590748,-46.52002,-27.335083,-661.345581
1733469770,-26.461166,13.973459,-3.577536,6.101318,-0.04578,-2.067522,-47.020676,-30.519608,-660.727295
1733469770,-25.168147,14.045734,-2.229002,6.173038,0.069604,-2.517416,-46.841232,-33.767044,-662.057922
1733469770,-23.766192,13.890559,-0.503979,6.137868,0.161445,-2.936249,-47.312653,-37.199722,-662.4552
1733469770,-22.085463,13.308469,1.281197,5.974401,0.164531,-3.318243,-47.590561,-40.412964,-662.328552
1733469770,-20.502746,12.524219,2.745251,5.712059,0.109572,-3.66537,-47.917114,-43.740448,-662.244629
1733469770,-18.90731,11.636269,3.903895,5.374186,0.035988,-3.985945,-47.96936,-46.693893,-662.458557
1733469770,-17.245734,10.729016,4.841824,4.9672,-0.059629,-4.267589,-47.767303,-49.664703,-661.770874
1733469770,-15.724368,10.009559,5.564274,4.529591,-0.190418,-4.513706,-47.709259,-52.410309,-661.573059
1733469770,-14.359075,9.400234,6.043115,4.073171,-0.341121,-4.751288,-47.278015,-54.730026,-660.851196
1733469770,-12.912827,8.915408,6.261735,3.593474,-0.470035,-4.957986,-47.314789,-57.013,-660.292236
1733469770,-11.36333,8.405443,6.42888,3.116179,-0.624636,-5.118454,-46.595016,-59.103714,-659.073853
1733469770,-9.599402,8.007407,6.428132,2.699929,-0.823664,-5.204044,-46.595016,-59.103714,-659.073853
1733469770,-7.902063,7.803451,6.252607,2.338823,-1.015845,-5.196736,-45.949295,-60.954407,-659.560791
1733469770,-6.455067,7.430405,5.926697,1.995605,-1.155849,-5.110859,-45.659378,-62.403702,-658.76886
1733469770,-5.342511,6.937648,5.469703,1.67325,-1.163674,-4.990583,-45.144043,-63.771469,-658.337646
1733469770,-4.605845,6.41676,5.12434,1.358185,-1.048939,-4.872161,-44.741028,-64.930725,-658.014648
1733469770,-3.87741,5.959467,4.908562,1.062127,-0.869816,-4.746428,-43.773514,-65.868195,-657.653564
1733469770,-2.983624,5.685481,4.674529,0.802222,-0.615115,-4.597607,-43.053024,-66.67012,-657.617981
1733469771,-2.071134,5.470452,4.759823,0.559358,-0.380732,-4.409829,-42.035294,-67.300568,-657.471191
1733469771,-1.194407,5.180304,4.93415,0.339822,-0.199633,-4.202068,-41.256622,-67.742416,-657.172791
1733469771,-0.234482,4.831798,5.23552,0.133304,-0.129861,-3.981787,-40.37825,-68.084778,-657.433044
1733469771,0.637755,4.346823,5.664382,-0.051594,-0.25337,-3.76657,-39.667587,-68.493469,-656.501282
1733469771,1.41647,3.659986,5.902006,-0.173557,-0.548436,-3.570984,-38.729767,-68.613739,-657.54425
1733469771,1.943643,2.98542,5.98715,-0.257463,-0.968012,-3.396218,-37.914993,-68.656998,-657.565918
1733469771,2.28736,2.446126,5.680243,-0.321094,-1.382578,-3.220142,-37.970108,-68.66214,-657.55835
1733469771,2.547879,1.98195,5.22744,-0.400438,-1.67049,-3.048236,-37.664124,-68.461685,-657.883972
1733469771,2.656067,1.771111,5.105785,-0.539537,-1.876186,-2.885534,-37.544922,-68.228271,-658.230103
1733469771,2.724302,1.542315,4.947618,-0.751832,-1.965434,-2.725326,-37.431137,-67.969803,-658.42334
1733469771,3.118298,1.394174,4.717625,-1.021308,-1.959605,-2.532409,-37.490295,-67.720703,-658.458862
1733469771,3.650709,1.318607,4.594772,-1.315059,-1.929964,-2.296391,-37.775894,-67.180939,-658.880432
1733469771,4.070741,1.089661,4.392462,-1.603405,-1.928727,-2.0381,-37.949905,-66.494385,-659.00293
1733469771,4.330512,0.801459,4.057873,-1.84795,-1.960324,-1.778322,-38.363831,-65.878616,-659.181091
1733469771,4.393809,0.571167,3.702932,-2.030015,-2.036374,-1.537512,-39.113647,-64.795502,-660.046082
1733469771,4.371513,0.495151,3.545214,-2.168344,-2.178287,-1.338401,-39.441315,-64.05925,-660.946533
1733469771,4.298191,0.573711,3.602675,-2.292311,-2.41838,-1.165353,-40.373535,-62.967514,-661.164673
1733469771,4.149301,0.732476,3.715352,-2.427532,-2.70678,-1.020885,-41.347488,-61.849472,-661.39679
1733469771,3.936965,1.072004,3.673603,-2.599346,-3.007149,-0.900594,-42.395218,-60.513535,-661.936462
1733469771,3.702783,1.450587,3.41084,-2.801066,-3.300716,-0.806455,-43.55777,-59.469788,-662.207947
1733469771,3.610306,1.857751,3.062034,-2.999478,-3.653495,-0.735425,-45.43045,-58.119568,-662.70343
1733469771,3.606266,2.408417,2.504784,-3.16265,-4.088519,-0.677658,-46.999496,-56.767624,-662.822388
1733469771,3.722984,2.896086,1.984494,-3.265786,-4.617977,-0.614421,-48.986908,-55.214172,-662.757446
1733469771,3.584868,3.353079,1.804031,-3.344067,-5.271663,-0.521801,-51.12738,-53.74942,-661.757141
1733469771,2.686444,4.360589,1.854908,-3.424047,-6.08251,-0.418302,-53.752014,-51.938156,-661.530457
1733469771,1.664269,5.507562,1.638981,-3.549321,-6.966368,-0.312895,-56.488235,-50.562531,-660.762939
1733469771,0.688034,6.68087,0.816572,-3.744562,-7.855625,-0.133372,-59.438828,-48.849915,-659.181885
1733469771,-0.564433,8.389582,-1.311873,-3.894449,-8.611931,0.229612,-62.680069,-47.005524,-657.147949
1733469771,-2.020856,10.5912,-4.500501,-3.84741,-9.083054,0.780873,-65.430496,-45.018555,-654.350708
1733469771,-3.312228,12.527511,-8.169764,-3.585727,-9.255654,1.561984,-67.9702,-43.019806,-651.321045
1733469771,-4.31091,13.673435,-13.230807,-3.080126,-8.766403,2.62577,-70.251175,-40.866989,-647.667664
1733469771,-5.833772,13.555072,-18.65532,-2.3843,-7.342764,3.790732,-72.398544,-38.432526,-644.716309
1733469771,-7.286902,12.681637,-22.254404,-1.674116,-5.221857,4.892951,-73.206299,-36.015472,-642.449524
1733469771,-8.625261,12.966248,-23.525126,-1.104209,-2.810819,5.973781,-73.571381,-33.297409,-640.790894
1733469771,-10.855161,13.729101,-22.37965,-0.731431,-0.612913,6.931428,-73.042542,-30.099228,-641.154236
1733469771,-13.338397,14.444069,-19.26659,-0.578779,0.934383,7.681257,-72.194122,-27.228775,-641.415894
1733469771,-15.551537,15.045612,-15.573683,-0.707812,1.606256,8.156202,-71.319366,-23.821991,-641.861694
1733469771,-17.376816,14.717307,-13.020267,-0.931793,1.377656,8.296389,-69.784866,-20.696869,-642.870911
1733469771,-18.412309,14.039599,-13.319842,-0.925047,0.762256,8.205321,-68.144989,-17.475357,-642.205505
1733469771,-19.772814,13.964929,-14.245949,-0.619195,0.027763,7.950262,-66.460815,-14.654587,-642.542114
1733469771,-21.845294,14.300267,-14.350545,-0.14492,-0.834638,7.504155,-64.701385,-12.136612,-642.188904
1733469771,-23.518243,13.170204,-15.011046,0.460083,-1.604933,6.903889,-63.176987,-10.303223,-641.72345
1733469771,-24.779389,11.993753,-15.995661,1.189265,-2.038146,6.241787,-61.485184,-8.476151,-641.183289
1733469771,-25.361479,11.64839,-16.361974,1.877544,-2.052319,5.675141,-60.220657,-7.404785,-641.011169
1733469771,-25.576807,12.036699,-16.025888,2.356568,-1.655294,5.233578,-58.717926,-6.507065,-641.171265
1733469771,-25.040955,12.827684,-15.003265,2.592548,-1.081308,4.950348,-57.607971,-5.803436,-641.29071
1733469771,-24.18443,13.667899,-13.694684,2.705072,-0.569063,4.85383,-55.337448,-5.408707,-642.095337
1733469771,-23.782802,14.407857,-12.59365,2.884068,-0.295518,4.984994,-53.435684,-5.043182,-643.45697
1733469771,-25.557953,14.918271,-12.140248,3.238435,-0.172749,5.165296,-51.887482,-4.718689,-644.369507
1733469771,-29.570186,14.333636,-12.141146,3.660564,0.075697,5.080538,-50.776871,-4.853928,-646.137756
1733469771,-33.528101,12.246042,-11.882124,3.859113,0.389012,4.438242,-49.471481,-5.213333,-647.634583
1733469771,-35.414582,10.448895,-11.640309,3.879579,0.628651,3.389766,-47.919312,-6.080154,-648.994873
1733469771,-34.898931,10.345495,-11.737274,3.962119,0.760434,2.362994,-46.297607,-6.919113,-650.3479
1733469771,-33.019632,11.112687,-11.595568,4.199071,0.757448,1.577847,-45.833984,-8.354172,-651.827393
1733469771,-31.188218,11.706748,-10.97113,4.51381,0.58358,0.958157,-45.229858,-9.960419,-653.31488
1733469771,-29.700072,12.317868,-10.461464,4.834882,0.296905,0.427493,-45.039703,-12.010574,-655.294434
1733469771,-28.369494,12.83726,-10.585813,5.179057,0.10842,-0.013171,-45.055878,-13.996429,-656.104126
1733469771,-27.453712,13.02341,-10.528352,5.509359,0.028164,-0.448138,-44.805725,-16.382309,-657.436646
1733469771,-26.671855,13.504195,-10.251373,5.804018,0.101887,-0.8677,-45.26297,-19.011612,-658.689453
1733469771,-25.766548,14.15871,-9.345018,6.021409,0.247187,-1.235368,-45.249908,-22.029358,-659.942261
1733469771,-24.93995,14.566622,-8.066514,6.17159,0.368393,-1.597859,-45.239731,-25.061478,-660.772949
1733469771,-23.760805,14.513052,-6.980145,6.280807,0.478174,-1.942605,-45.818451,-28.39711,-661.579712
1733469771,-22.339548,14.06773,-5.802797,6.36201,0.549595,-2.264944,-45.957962,-31.837982,-661.942993
1733469771,-20.93879,13.668198,-4.481497,6.405149,0.570504,-2.578964,-46.175858,-35.269363,-662.642822
1733469771,-19.455881,13.314305,-3.204639,6.402564,0.574885,-2.863515,-46.388367,-38.921127,-663.025269
1733469771,-17.947385,12.637793,-1.818097,6.346279,0.523818,-3.1321,-46.062057,-42.394241,-663.405945
1733469771,-16.476148,12.048969,-0.417339,6.232847,0.423709,-3.370033,-46.006546,-45.925888,-663.061218
1733469771,-15.183877,11.695675,0.817919,6.090322,0.306267,-3.558069,-45.862991,-49.14151,-662.860718
1733469771,-13.868862,10.99597,2.060959,5.886737,0.176916,-3.720497,-45.726822,-52.314117,-662.258667
1733469771,-12.64752,10.144831,3.34051,5.585982,0.016356,-3.886036,-45.413361,-55.446075,-661.216064
1733469771,-11.490073,9.355942,4.41835,5.222502,-0.163804,-4.04076,-45.300323,-58.168549,-660.308533
1733469771,-10.416124,8.579023,5.281758,4.813183,-0.337532,-4.200787,-44.582977,-60.884216,-660.088989
1733469771,-9.325864,7.883208,6.105962,4.350734,-0.540174,-4.359931,-44.011673,-63.260849,-658.397705
1733469771,-8.16333,7.281366,6.698078,3.873613,-0.79451,-4.466271,-43.446701,-65.102264,-657.675537
1733469771,-7.089231,6.902184,6.868067,3.44853,-1.027843,-4.498004,-42.762985,-66.959839,-657.125671
1733469771,-6.204574,6.59827,7.075165,3.093516,-1.270587,-4.453166,-42.164108,-68.538254,-656.367371
1733469771,-5.580585,6.008099,7.384915,2.795864,-1.516944,-4.374743,-41.734055,-70.212692,-655.410278
1733469771,-5.015104,5.248689,7.937227,2.517534,-1.736584,-4.294709,-41.165588,-71.442383,-654.841797
1733469771,-4.378247,4.659266,8.599374,2.166636,-1.920225,-4.217823,-40.67955,-72.424377,-654.505981
1733469771,-3.82339,4.288763,9.029133,1.703243,-2.007919,-4.159867,-40.218063,-73.231598,-653.611084
1733469771,-3.072808,3.997569,9.070583,1.134644,-1.90695,-4.115878,-39.697189,-73.699219,-653.258179
1733469771,-2.061557,3.769072,9.114127,0.495928,-1.738425,-4.03892,-39.016632,-73.986496,-653.38385
1733469771,-0.980426,3.680187,8.934861,-0.125686,-1.597154,-3.922643,-38.456314,-74.200363,-652.733032
1733469771,0.056413,3.560776,8.516774,-0.638399,-1.571454,-3.759939,-38.079269,-73.88652,-653.700745
1733469771,0.896928,3.427898,7.913435,-1.000424,-1.683616,-3.554617,-37.696472,-73.364471,-654.230652
1733469771,1.536629,3.00592,7.178565,-1.250826,-1.868243,-3.357568,-37.097,-73.055527,-654.651733
1733469771,2.106,2.259977,6.48664,-1.429199,-2.10939,-3.16985,-37.008881,-72.572372,-655.218628
1733469771,2.532616,1.740884,5.743839,-1.568414,-2.330453,-2.965987,-37.015076,-72.008987,-655.625
1733469771,2.76246,1.470638,4.963928,-1.710225,-2.441005,-2.758896,-37.449203,-71.223892,-656.233765
1733469771,3.020136,1.336713,4.485387,-1.884486,-2.50537,-2.556319,-37.416183,-70.578323,-656.785156
1733469771,3.281104,1.384597,4.109498,-2.066234,-2.565374,-2.33373,-37.968384,-69.501236,-657.225647
1733469771,3.609558,1.575834,3.507954,-2.238055,-2.566137,-2.065734,-38.285477,-68.72406,-658.063843
1733469771,3.979762,1.65574,2.943671,-2.423818,-2.495965,-1.77149,-38.750504,-67.511444,-657.977417
1733469771,4.387823,1.642123,2.482937,-2.641931,-2.388321,-1.464146,-39.483383,-66.342972,-659.217773
1733469771,4.670788,1.744774,2.008885,-2.86025,-2.285688,-1.142732,-40.187012,-65.014526,-659.798096
1733469771,4.846163,1.922095,1.395371,-3.030345,-2.209245,-0.81721,-41.258148,-63.521332,-660.424011
1733469771,4.916493,1.990779,0.818069,-3.127997,-2.19789,-0.507955,-41.808289,-62.150787,-661.271179
1733469771,4.937592,1.920898,0.261267,-3.151939,-2.259875,-0.209142,-42.659668,-60.694901,-661.744385
1733469771,4.870405,1.865532,-0.293888,-3.111394,-2.352155,0.077912,-43.907822,-59.227921,-662.149841
1733469771,4.696376,2.081309,-0.810587,-3.059244,-2.384501,0.369515,-45.31778,-57.782684,-662.307861
1733469772,4.59986,2.528277,-1.183334,-3.081699,-2.321641,0.681853,-46.145981,-55.918396,-662.55188
1733469772,4.473267,3.011158,-1.422754,-3.222533,-2.187153,0.996728,-47.515686,-54.219879,-662.785645
1733469772,4.26108,3.585317,-1.613842,-3.445368,-2.023772,1.281653,-48.587158,-52.435394,-662.609375
1733469772,4.17474,4.443489,-1.632247,-3.690717,-1.956718,1.553496,-49.408875,-50.359344,-663.576599
1733469772,4.185513,5.272032,-1.617882,-3.907274,-2.078031,1.836201,-50.758392,-48.139221,-663.110657
1733469772,4.285172,5.918467,-1.740285,-4.061663,-2.390588,2.147826,-51.829498,-45.597458,-663.115906
1733469772,4.156783,6.381745,-2.2709,-4.160401,-2.810091,2.52307,-53.547989,-43.310104,-662.694702
1733469772,3.340809,6.950218,-3.099743,-4.250761,-3.232838,2.901022,-55.126251,-40.672394,-661.621643
1733469772,2.161665,7.371897,-4.21589,-4.356721,-3.581087,3.23057,-56.589157,-37.895462,-660.806519
1733469772,0.61112,7.931541,-5.792921,-4.483393,-3.798584,3.508348,-58.067459,-34.790298,-659.558838
1733469772,-1.060631,8.278401,-7.537994,-4.579117,-3.863014,3.704683,-59.339935,-31.835938,-658.322449
1733469772,-2.77054,8.551191,-9.304765,-4.607005,-3.849121,3.826195,-60.240341,-28.895065,-656.991882
1733469772,-4.166958,9.173384,-11.077373,-4.554175,-3.758625,3.918749,-60.881927,-26.068085,-654.707092
1733469772,-5.334581,10.833463,-12.332533,-4.494348,-3.645207,4.03681,-61.286011,-23.142883,-653.232727
1733469772,-6.295553,12.733861,-13.681067,-4.462001,-3.538508,4.221205,-61.745789,-20.183517,-651.228699
1733469772,-6.985233,14.175021,-16.159215,-4.350682,-3.315217,4.506693,-61.46962,-17.216476,-649.33313
1733469772,-8.095245,15.860239,-19.035549,-4.113443,-2.952557,4.851278,-61.357956,-14.641327,-647.585571
1733469772,-9.646388,17.159991,-21.861156,-3.742632,-2.586543,5.140583,-60.695099,-12.312057,-645.924805
1733469772,-11.591078,17.473931,-24.095994,-3.067755,-2.550224,5.280396,-59.824097,-10.252914,-644.463013
1733469772,-14.045285,17.611298,-25.972449,-2.011442,-2.830471,5.241647,-59.113205,-8.496918,-643.70166
1733469772,-15.886725,17.323545,-27.755082,-0.742576,-3.068199,5.151278,-57.995987,-7.349457,-642.872681
1733469772,-17.55698,16.921469,-28.105384,0.45177,-3.091962,5.021458,-57.16893,-6.513977,-642.316833
1733469772,-19.204939,16.590471,-27.067797,1.45332,-2.956134,4.845295,-56.629578,-6.188904,-642.379761
1733469772,-20.758177,16.391453,-25.16276,2.304395,-2.832291,4.622131,-56.152206,-6.044418,-642.667175
1733469772,-22.108507,15.658079,-22.897696,3.044977,-2.817659,4.293274,-55.69725,-6.158432,-643.475098
1733469772,-23.425767,15.039327,-20.500052,3.665196,-2.902156,3.837243,-55.265869,-6.515564,-643.950195
1733469772,-24.234558,14.358925,-17.995568,4.136902,-3.107666,3.29529,-55.139038,-7.419006,-644.906982
1733469772,-24.53503,14.137611,-16.628479,4.653012,-3.173497,2.889175,-55.15863,-8.522659,-645.974548
1733469772,-25.004743,13.763068,-15.353866,5.16839,-3.008603,2.597496,-54.975266,-9.700577,-647.227783
1733469772,-25.796176,12.810625,-13.476213,5.596132,-2.699007,2.320815,-55.211563,-11.284927,-648.631775
1733469772,-26.879552,12.158504,-11.56998,5.934886,-2.204308,2.015031,-55.175797,-12.741089,-649.819397
1733469772,-27.858182,11.740117,-8.990527,6.067064,-1.715016,1.622573,-55.42952,-14.714661,-651.045471
1733469772,-28.433539,11.484088,-6.67249,5.977996,-1.226963,1.199129,-55.531662,-16.846619,-651.38623
1733469772,-28.955325,11.436054,-5.000889,5.761418,-0.710791,0.770659,-55.554413,-18.767532,-653.352051
1733469772,-29.194147,11.436952,-3.325546,5.504479,-0.338685,0.320546,-55.554413,-18.767532,-653.352051
1733469772,-28.630312,11.440393,-1.559523,5.207361,-0.045947,-0.568999,-55.438324,-20.917679,-654.523254
1733469772,-28.630312,11.440393,-1.559523,5.207361,-0.045947,-0.568999,-55.734055,-23.257462,-656.305481
1733469772,-28.151771,11.047146,-0.713023,5.106943,-0.025547,-1.073063,-56.069534,-25.526337,-656.230408
1733469772,-26.106824,11.069591,0.493355,4.921356,0.057432,-2.049385,-56.107147,-27.962753,-656.727478
1733469772,-24.642321,11.147553,1.291522,4.921356,0.057432,-2.049385,-56.13208,-30.606979,-657.620056
1733469772,-23.289297,11.389965,2.127697,4.840985,0.179063,-2.757092,-56.566162,-36.030487,-658.0802
1733469772,-22.256648,11.413159,3.081188,4.776016,0.31774,-2.978374,-56.566162,-36.030487,-658.0802
1733469772,-21.502774,11.120468,4.096479,4.650492,0.5218,-3.174293,-56.782028,-38.840347,-658.202393
1733469772,-20.657322,10.206332,5.147534,4.411304,0.755865,-3.415922,-56.768478,-41.788513,-657.703125
1733469772,-19.651907,9.559299,6.207866,4.065946,0.957501,-3.697812,-56.404831,-44.670258,-658.70874
1733469772,-18.317588,9.281272,7.220014,3.706757,1.030953,-3.969628,-56.13179,-47.213623,-659.032227
1733469772,-16.554558,8.968231,8.067711,3.355482,0.945645,-4.221302,-55.721146,-49.695557,-658.636536
1733469772,-14.655956,8.646061,8.67524,3.004653,0.734126,-4.437092,-55.117477,-52.090866,-659.16571
1733469772,-12.690616,8.406192,8.876203,2.64443,0.460639,-4.591157,-54.588104,-54.193054,-658.673218
1733469772,-10.679037,8.221988,8.901791,2.301544,0.185628,-4.653588,-53.90863,-56.192627,-658.43866
1733469772,-8.79899,7.868394,9.003395,1.960863,-0.120397,-4.616583,-53.254776,-58.244415,-658.302979
1733469772,-7.261314,7.324162,8.992322,1.611714,-0.431608,-4.524929,-52.941101,-59.916733,-658.001221
1733469772,-6.220734,6.6065,8.601169,1.258309,-0.68708,-4.410784,-52.15921,-61.409622,-657.391541
1733469772,-5.705831,5.745785,7.926005,0.936223,-0.844754,-4.304438,-51.606644,-62.657806,-657.110962
1733469772,-5.486762,4.991462,7.158962,0.642443,-0.849458,-4.244385,-50.787308,-63.718124,-657.124878
1733469772,-5.125238,4.543297,6.590938,0.325916,-0.729895,-4.193985,-50.681,-64.589142,-656.595886
1733469772,-4.672733,4.296096,6.217442,-0.014034,-0.564125,-4.125681,-49.833649,-65.27037,-656.902466
1733469772,-4.22008,3.966893,5.889886,-0.336969,-0.378233,-4.062406,-49.072266,-65.867477,-656.670898
1733469772,-3.741389,3.540276,5.708824,-0.640627,-0.257188,-4.003911,-48.13443,-66.570328,-657.219055
1733469772,-3.298462,3.525612,5.556044,-0.905911,-0.269162,-3.941127,-47.482529,-66.544205,-657.242676
1733469772,-2.680907,3.59654,5.405658,-1.082511,-0.478156,-3.876668,-46.6185,-66.827652,-657.783936
1733469772,-1.909525,3.217059,5.122544,-1.16662,-0.853884,-3.799763,-45.88324,-66.829025,-657.764038
1733469772,-1.304541,2.647688,4.468029,-1.204319,-1.240862,-3.724538,-45.29541,-66.623535,-657.507996
1733469772,-0.940921,2.227505,3.797204,-1.251895,-1.538412,-3.642896,-44.859131,-66.71788,-657.623962
1733469772,-0.541239,1.998709,3.11321,-1.346803,-1.662906,-3.548351,-44.609039,-66.258942,-658.194275
1733469772,-0.010774,1.816002,2.633323,-1.506608,-1.661507,-3.414334,-44.243301,-66.049957,-658.31134
1733469772,0.500687,1.61863,2.32073,-1.700147,-1.586225,-3.24445,-43.95134,-65.723969,-658.841187
1733469772,0.920421,1.408988,2.102857,-1.914859,-1.480106,-3.067551,-43.875504,-65.037643,-659.338013
1733469772,1.375319,1.226131,1.954267,-2.14128,-1.402923,-2.880584,-44.162064,-64.520157,-659.914612
1733469772,1.810615,1.199196,1.742081,-2.338346,-1.408593,-2.694628,-43.924683,-63.573425,-660.478394
1733469772,2.252345,1.083825,1.287332,-2.476284,-1.4647,-2.514524,-44.139893,-62.769318,-661.011475
1733469772,2.839822,0.873285,0.841712,-2.560191,-1.573012,-2.304133,-44.4496,-61.966553,-661.051453
1733469772,3.380313,0.880468,0.478391,-2.605994,-1.694214,-2.062411,-44.575272,-60.90271,-661.674744
1733469772,3.86469,0.998232,0.158466,-2.650144,-1.809227,-1.8113,-44.887009,-59.940308,-661.757935
1733469772,4.304176,1.327884,-0.270246,-2.694147,-1.883595,-1.527287,-45.397125,-58.625519,-662.581543
1733469772,4.790049,1.772308,-0.679055,-2.721958,-1.939772,-1.209845,-45.932617,-57.608215,-662.636902
1733469772,5.379621,2.088043,-1.022324,-2.757355,-2.008986,-0.836159,-46.89502,-56.350632,-662.762329
1733469772,5.911882,2.435951,-1.465551,-2.813494,-2.084671,-0.405467,-47.491501,-54.925552,-662.803772
1733469772,6.348824,2.656816,-2.070087,-2.880215,-2.121242,0.063068,-48.468338,-53.491028,-662.928955
1733469772,6.519261,2.562694,-2.55985,-2.949669,-2.146631,0.527804,-49.576035,-52.077591,-663.361511
1733469772,6.331616,2.685097,-2.85329,-3.032043,-2.146076,0.955488,-50.491653,-50.674377,-663.255493
1733469772,5.85936,3.194912,-2.912846,-3.165931,-2.151397,1.318182,-51.613052,-48.949951,-663.347778
1733469772,5.347898,4.006397,-2.776675,-3.301176,-2.26879,1.631758,-52.716614,-47.095993,-663.007935
1733469772,5.041141,4.666299,-3.047071,-3.384456,-2.481721,1.941741,-54.063766,-45.274857,-661.939331
1733469772,4.87654,5.26889,-3.90614,-3.421685,-2.700495,2.292924,-55.355148,-43.215744,-662.222229
1733469772,4.647295,5.91712,-5.07062,-3.466247,-2.875814,2.692363,-56.352234,-41.184204,-661.562073
1733469772,3.994875,6.693889,-6.722918,-3.504357,-2.923597,3.111683,-57.371536,-38.807693,-660.909363
1733469772,3.076998,7.57271,-8.532037,-3.477372,-2.827511,3.512948,-58.557343,-36.493881,-659.999451
1733469772,2.067094,8.586355,-9.788993,-3.417505,-2.736833,3.883784,-59.656021,-34.048233,-659.144958
1733469772,1.027412,9.358186,-10.56621,-3.275505,-2.848538,4.198762,-60.228775,-31.736267,-658.059753
1733469772,-0.212036,9.716867,-11.323377,-2.932596,-3.156126,4.449927,-61.046219,-29.519791,-657.1521
1733469772,-1.378911,9.764003,-11.910704,-2.460477,-3.538116,4.680707,-61.61142,-27.07991,-655.69397
1733469772,-2.648885,10.051008,-12.374132,-2.072798,-3.751327,4.97133,-61.918976,-24.718277,-654.09259
1733469772,-4.725556,11.1281,-13.124864,-1.909661,-3.543815,5.284462,-62.102554,-22.448654,-652.489014
1733469772,-7.052869,12.046276,-14.309844,-1.983927,-2.87167,5.573434,-62.170212,-20.306061,-651.70752
1733469772,-9.279776,12.504466,-15.724967,-2.226648,-1.904837,5.764074,-61.826157,-17.855255,-650.172241
1733469772,-11.430517,13.301436,-16.764499,-2.45519,-1.051074,5.79649,-60.629776,-15.369034,-649.29187
1733469772,-13.206716,14.558991,-17.422605,-2.448596,-0.753247,5.674442,-59.418854,-13.206268,-647.953308
1733469772,-14.386459,15.36853,-18.6016,-2.067556,-1.074134,5.451914,-58.354797,-10.912338,-647.390076
1733469772,-15.311817,15.462353,-20.353408,-1.258477,-1.756467,5.213991,-57.413513,-9.396332,-646.43103
1733469773,-16.458191,15.117588,-22.201432,-0.180469,-2.363367,4.988987,-56.434021,-8.199493,-645.8573
1733469773,-18.218827,14.730625,-23.327156,0.866225,-2.555747,4.696615,-55.536362,-7.052078,-645.121033
1733469773,-19.458275,14.6582,-22.940941,1.661572,-2.361546,4.374561,-54.058731,-6.461517,-644.789246
1733469773,-19.833567,15.636531,-21.657499,2.207668,-1.925049,4.237465,-53.044022,-6.211884,-645.203369
1733469773,-20.525341,16.477943,-20.04291,2.628238,-1.484,4.279406,-52.043564,-6.262756,-645.79126
1733469773,-22.248418,16.232089,-18.575563,3.042359,-1.189302,4.307059,-50.961136,-6.277618,-646.445496
1733469773,-24.666562,15.227571,-17.58601,3.444987,-1.000346,4.168928,-50.073608,-6.648758,-647.68988
1733469773,-27.086352,13.78731,-16.806697,3.805583,-0.83543,3.736037,-49.489899,-7.126358,-648.940186
1733469773,-28.50312,12.353183,-15.693094,4.060556,-0.737711,3.015097,-48.691086,-8.171112,-650.18573
1733469773,-28.302307,11.755979,-13.850457,4.240175,-0.868086,2.216599,-48.301743,-9.311646,-651.285522
1733469773,-27.296742,12.417826,-12.223297,4.484665,-1.194819,1.547397,-48.019379,-10.630585,-652.362183
1733469773,-26.314222,13.365032,-11.052233,4.836184,-1.53851,1.084026,-47.970993,-12.19931,-653.62146
1733469773,-25.812487,13.841329,-10.279056,5.205731,-1.644926,0.813917,-48.02179,-14.057892,-654.660339
1733469773,-26.272772,13.660417,-9.498546,5.45072,-1.354172,0.610278,-48.046173,-15.977844,-655.861267
1733469773,-27.342681,13.039421,-8.025065,5.494171,-0.82668,0.319996,-48.766342,-18.106491,-656.693909
1733469773,-28.092216,12.425158,-6.268618,5.386417,-0.216446,-0.09159,-48.821793,-20.733032,-657.949768
1733469773,-28.031762,11.975797,-4.239533,5.184573,0.256306,-0.592745,-48.676239,-23.146057,-658.90564
1733469773,-27.133338,11.931055,-2.376096,4.976065,0.487859,-1.071135,-48.704422,-25.591064,-660.169861
1733469773,-25.883265,11.98672,-0.963816,4.836066,0.502698,-1.479517,-48.566208,-27.836014,-660.46228
1733469773,-24.874259,11.922077,0.031125,4.764295,0.411095,-1.818096,-48.648163,-30.529404,-661.228699
1733469773,-24.153754,11.452664,0.665139,4.709608,0.353021,-2.128447,-48.86322,-33.044495,-661.537415
1733469773,-23.471257,10.448745,1.182736,4.635028,0.405736,-2.47084,-49.132919,-35.680542,-661.76593
1733469773,-22.585552,9.476998,1.996764,4.515776,0.502778,-2.85952,-49.13179,-38.408859,-661.837341
1733469773,-21.175367,8.785972,3.061735,4.354001,0.545576,-3.238182,-49.303802,-40.962296,-662.064514
1733469773,-19.565117,8.447492,4.075081,4.140863,0.533306,-3.588469,-49.444885,-43.404556,-662.005005
1733469773,-17.921497,8.175151,5.088427,3.884399,0.411977,-3.918144,-49.071503,-46.061584,-662.193909
1733469773,-16.151733,7.831134,5.638495,3.61305,0.245625,-4.200936,-49.104645,-48.347473,-662.01062
1733469773,-14.412346,7.631967,5.931186,3.325897,0.090726,-4.427794,-48.697342,-50.283188,-661.574768
1733469773,-12.579435,7.558794,6.271162,2.994157,-0.080542,-4.574795,-48.404297,-52.506332,-661.36261
1733469773,-10.750265,7.292888,6.289717,2.639136,-0.21869,-4.62942,-48.137054,-54.198685,-660.89386
1733469773,-9.161113,6.859537,6.095787,2.281705,-0.298412,-4.620953,-47.594635,-56.120102,-660.735535
1733469773,-7.852084,6.506692,5.831677,1.93671,-0.331252,-4.57827,-47.341263,-57.493759,-660.6073
1733469773,-6.709601,6.085462,5.481525,1.617149,-0.331898,-4.512062,-46.807968,-58.788834,-659.762268
1733469773,-5.629217,5.671864,5.185093,1.327889,-0.330822,-4.413953,-46.482361,-59.894409,-660.130554
1733469773,-4.796933,5.240159,4.895245,1.060139,-0.308002,-4.321756,-45.781998,-60.985855,-659.641907
1733469773,-4.195689,4.870255,4.743811,0.799146,-0.313637,-4.253717,-45.033157,-61.536453,-659.664307
1733469773,-3.500323,4.518457,4.583549,0.558566,-0.377405,-4.209944,-44.575653,-62.491028,-659.486572
1733469773,-2.78296,4.10022,4.334702,0.37851,-0.53655,-4.17187,-43.797394,-63.000809,-659.716797
1733469773,-2.073678,3.847781,4.026299,0.267479,-0.749973,-4.12399,-43.308243,-63.462601,-659.795654
1733469773,-1.311723,3.564667,3.647716,0.194368,-1.005193,-4.054016,-42.703491,-64.02211,-659.894165
1733469773,-0.526425,3.435081,3.333627,0.174421,-1.269329,-3.929146,-42.58638,-64.126602,-659.452148
1733469773,0.279373,3.272275,3.186084,0.169797,-1.527415,-3.746726,-42.332687,-64.752716,-659.636353
1733469773,1.016638,2.83683,2.986168,0.113736,-1.696636,-3.523329,-42.111053,-64.936203,-658.856934
1733469773,1.560122,2.488174,2.745102,-0.002813,-1.756479,-3.270354,-42.136597,-65.361877,-659.600464
1733469773,2.053327,2.016367,2.649184,-0.159181,-1.760196,-3.00244,-42.202362,-65.197449,-659.579956
1733469773,2.401384,1.42455,2.623895,-0.340734,-1.755993,-2.735581,-42.268585,-65.279037,-659.570801
1733469773,2.702904,0.890344,2.502839,-0.520734,-1.748594,-2.480423,-42.374756,-65.221848,-659.546692
1733469773,2.820669,0.278176,2.578256,-0.699629,-1.777604,-2.23612,-42.688141,-64.885498,-660.057617
1733469773,2.696021,-0.320973,2.851943,-0.901762,-1.871168,-2.044739,-43.32283,-64.618057,-659.822266
1733469773,2.496404,-0.758663,3.066673,-1.134363,-2.0254,-1.916995,-43.616867,-64.411087,-660.174927
1733469773,2.425177,-0.884059,3.059341,-1.379924,-2.191325,-1.81018,-44.059113,-63.637039,-660.087585
1733469773,2.59322,-0.881814,2.701557,-1.62914,-2.283356,-1.688903,-44.438675,-63.098373,-660.604797
1733469773,2.796428,-0.579995,2.251896,-1.897982,-2.30583,-1.527195,-45.206131,-62.384369,-660.171387
1733469773,3.136404,-0.14455,1.733402,-2.172981,-2.283106,-1.324812,-45.949142,-61.437515,-660.631653
1733469773,3.60866,0.091429,0.958578,-2.397582,-2.238902,-1.071929,-46.613815,-60.441376,-660.881897
1733469773,4.073584,0.29329,0.17747,-2.545161,-2.186759,-0.795797,-47.501968,-59.267914,-661.509766
1733469773,4.338293,0.707936,-0.442329,-2.623952,-2.179555,-0.499218,-48.498703,-58.06456,-661.736816
1733469773,4.605247,1.095048,-0.924162,-2.636731,-2.254185,-0.198693,-49.403244,-56.733749,-661.235413
1733469773,4.758027,1.466748,-1.187674,-2.583105,-2.449482,0.120593,-50.630112,-55.562912,-661.615051
1733469773,4.964527,1.805827,-1.390732,-2.490823,-2.727791,0.477855,-52.048401,-54.333618,-661.24176
1733469773,5.139752,2.089091,-1.598579,-2.428579,-3.045629,0.870054,-53.34906,-52.988647,-661.218323
1733469773,5.006425,2.66325,-2.019359,-2.400554,-3.334403,1.243147,-55.11203,-51.606567,-660.623962
1733469773,4.907814,3.587861,-2.636615,-2.364703,-3.563003,1.669841,-56.75177,-50.203934,-659.764465
1733469773,4.666748,4.493617,-3.39408,-2.343539,-3.686966,2.149352,-58.347137,-48.508759,-659.427734
1733469773,4.122666,5.649867,-4.128801,-2.372407,-3.647761,2.657179,-59.795654,-46.727997,-658.80481
1733469773,3.470096,6.918794,-4.878036,-2.490563,-3.469568,3.216445,-61.482407,-44.506592,-657.784851
1733469773,2.736872,7.87842,-5.837064,-2.691,-3.191629,3.818176,-62.628204,-42.109329,-657.194336
1733469773,1.806724,8.117541,-7.107637,-2.904988,-2.882745,4.410305,-63.539032,-39.738251,-656.357849
1733469773,0.005986,8.770559,-8.558672,-3.078217,-2.552097,4.919771,-64.609283,-37.104309,-655.689148
1733469773,-2.185008,9.00968,-10.030209,-3.209292,-2.252051,5.242656,-64.845184,-34.329926,-654.800537
1733469773,-4.413112,9.019556,-11.73892,-3.263132,-1.949779,5.39924,-65.223877,-31.233215,-654.073364
1733469773,-6.661417,9.450213,-13.397803,-3.251004,-1.679881,5.3895,-64.963745,-28.588959,-653.144348
1733469773,-8.228721,9.763704,-15.0094,-3.07444,-1.474798,5.292845,-64.678955,-25.974167,-651.300903
1733469773,-9.353697,10.427347,-16.112528,-2.78109,-1.40693,5.20978,-64.052734,-23.458313,-650.790894
1733469773,-10.185383,10.995221,-16.849493,-2.428946,-1.519042,5.155963,-63.561188,-21.029953,-650.495361
1733469773,-11.09922,11.347768,-18.119468,-2.03147,-1.599797,5.182501,-63.081619,-18.786209,-649.094971
1733469773,-12.477681,11.960833,-19.639786,-1.693546,-1.462902,5.247634,-61.916107,-16.595322,-648.380859
1733469773,-13.804219,12.044031,-20.852599,-1.448916,-1.216666,5.269708,-61.139832,-14.713989,-647.184265
1733469773,-15.383344,12.281656,-21.967399,-1.165078,-1.068169,5.188026,-60.279236,-13.057327,-646.980347
1733469773,-17.308282,13.178733,-22.724864,-0.750121,-1.223001,4.940383,-59.536148,-11.928192,-646.824402
1733469773,-18.728942,13.640964,-23.552211,-0.107978,-1.696765,4.57856,-58.944916,-10.789856,-646.206787
1733469773,-19.928437,14.067281,-24.693347,0.80805,-2.292269,4.176965,-58.460129,-10.072311,-645.702209
1733469773,-20.983681,14.79856,-25.905262,1.870311,-2.677671,3.819316,-57.658478,-9.871338,-644.700439
1733469773,-21.678897,15.289372,-26.449195,2.915494,-2.622672,3.596727,-56.946426,-10.101715,-645.779175
1733469773,-22.477214,15.386487,-25.821166,3.887932,-2.144122,3.508489,-56.946426,-10.101715,-645.779175
1733469773,-23.65157,15.431976,-23.767988,4.728709,-1.362675,3.561857,-55.051331,-11.32605,-648.305115
1733469773,-25.679908,15.393071,-20.501998,5.415339,-0.450503,3.685411,-54.536484,-12.37851,-649.709229
1733469773,-28.776359,14.463672,-15.994315,5.817234,0.327562,3.609539,-54.06398,-13.918686,-652.07489
1733469773,-31.484949,12.366351,-10.964695,5.810922,0.639793,3.1188,-53.656158,-15.485443,-653.564026
1733469773,-32.799515,10.199598,-6.814646,5.536757,0.392327,2.236579,-52.771698,-17.520782,-655.351013
1733469773,-32.322321,9.235783,-4.597915,5.257565,-0.213436,1.241225,-52.771698,-17.520782,-655.351013
1733469773,-30.659548,10.33936,-4.436605,5.226904,-0.744689,0.537538,-52.454803,-19.310745,-655.916321
1733469773,-29.186815,11.561301,-4.68261,5.368729,-0.99108,0.131804,-52.28418,-21.566818,-656.85144
1733469773,-28.713361,12.02413,-4.655525,5.530626,-0.878059,-0.107372,-52.202866,-23.690842,-657.069519
1733469773,-29.207614,12.138004,-4.115333,5.62525,-0.456456,-0.37191,-52.524261,-26.098938,-657.950439
1733469773,-29.618968,11.537957,-2.796876,5.585821,0.011714,-0.770531,-52.867859,-28.80014,-658.683838
1733469773,-29.284977,11.043704,-1.13156,5.465964,0.39207,-1.264642,-53.247665,-31.644974,-659.069946
1733469773,-28.246043,11.005696,0.825551,5.310386,0.512778,-1.779864,-53.1026,-34.447586,-659.732117
1733469773,-26.793062,10.967838,2.50224,5.146789,0.377148,-2.263513,-52.999237,-37.200211,-660.054504
1733469773,-25.263466,10.94195,3.306841,5.00811,0.202154,-2.656374,-52.982361,-39.974915,-659.980957
1733469774,-23.984364,10.482413,3.763984,4.837772,0.128288,-3.016605,-53.208679,-42.923767,-659.8927
1733469774,-22.611738,9.856779,4.391415,4.581419,0.130301,-3.367388,-53.306473,-45.472794,-659.800476
1733469774,-20.97171,9.370007,4.889558,4.267116,0.189226,-3.670099,-53.421463,-48.30896,-659.427734
1733469774,-19.15481,8.765621,5.391443,3.931952,0.244747,-3.932493,-53.267731,-51.050827,-658.391296
1733469774,-17.299603,8.198794,5.997924,3.576034,0.24553,-4.168519,-52.774048,-53.299133,-658.976868
1733469774,-15.401899,7.760356,6.571186,3.189429,0.168439,-4.372644,-52.422287,-55.422852,-658.485474
1733469774,-13.507637,7.372794,6.874202,2.783369,0.047164,-4.531654,-51.888138,-57.636703,-658.432251
1733469774,-11.64016,7.104045,6.926276,2.384463,-0.085869,-4.637926,-51.32428,-59.358917,-657.621033
1733469774,-9.869498,6.786963,6.916998,2.00753,-0.264067,-4.688978,-50.738846,-61.116913,-657.633484
1733469774,-8.260145,6.549788,6.786514,1.67016,-0.469744,-4.670951,-50.041077,-62.722824,-656.67395
1733469774,-6.898593,6.285528,6.455815,1.368925,-0.665066,-4.622325,-49.484741,-64.082657,-656.856506
1733469774,-5.766884,5.810428,6.060173,1.10509,-0.83605,-4.55071,-49.081787,-65.073853,-656.325378
1733469774,-4.86397,5.320664,5.490653,0.858186,-0.906597,-4.462042,-48.041656,-66.184952,-656.386292
1733469774,-4.085256,4.876241,5.090522,0.611015,-0.877901,-4.370795,-47.664566,-66.987244,-655.45929
1733469774,-3.349488,4.487781,4.927566,0.348457,-0.823784,-4.283108,-46.662506,-67.521255,-655.808655
1733469774,-2.507028,4.211999,4.632481,0.101019,-0.724851,-4.184346,-46.106064,-68.264725,-656.257568
1733469774,-1.685368,4.084358,4.619612,-0.123696,-0.69645,-4.061538,-45.29541,-68.774307,-655.449341
1733469774,-1.017985,3.899706,4.699668,-0.313409,-0.781763,-3.933022,-44.759995,-68.98848,-655.586853
1733469774,-0.568773,3.621679,4.611532,-0.45433,-0.960288,-3.809499,-43.933167,-69.063156,-656.165771
1733469774,-0.17328,3.463512,4.482694,-0.551701,-1.20269,-3.683235,-43.254333,-69.390427,-656.213257
1733469774,0.308553,3.322553,4.156484,-0.630632,-1.451698,-3.511537,-42.630264,-69.306717,-656.295105
1733469774,0.72275,3.02268,3.585317,-0.702439,-1.600901,-3.29404,-42.558868,-69.131851,-656.089966
1733469774,1.075595,2.790442,2.962675,-0.789151,-1.560353,-3.024953,-42.295898,-69.002762,-656.254028
1733469774,1.350629,2.490718,2.722955,-0.911812,-1.398631,-2.723305,-42.108353,-68.730545,-655.75354
1733469774,1.524658,1.958008,2.830844,-1.091196,-1.230431,-2.441096,-41.915726,-68.470352,-656.77594
1733469774,1.645864,1.439963,2.856731,-1.297087,-1.085196,-2.186246,-41.942963,-67.995285,-656.92157
1733469774,1.754052,0.967856,2.775927,-1.49446,-0.971911,-1.970109,-41.68248,-67.631424,-657.51947
1733469774,1.873313,0.550068,2.880823,-1.668955,-0.934853,-1.783703,-41.78241,-66.805481,-657.931213
1733469774,1.97387,0.244059,3.185785,-1.835047,-1.033204,-1.624928,-41.852081,-66.293213,-658.351807
1733469774,2.059013,0.024092,3.364003,-1.997377,-1.224397,-1.477279,-41.995377,-65.364487,-658.641602
1733469774,2.097321,-0.076914,3.042731,-2.160384,-1.397325,-1.338331,-42.12767,-64.618011,-659.615845
1733469774,2.271948,0.101155,2.454655,-2.30631,-1.488878,-1.189032,-42.611877,-63.680145,-659.810181
1733469774,2.625691,0.461931,2.009334,-2.447225,-1.530792,-1.001832,-42.974274,-62.574692,-660.367554
1733469774,3.094057,0.835876,1.65993,-2.581095,-1.574759,-0.76022,-43.010529,-61.509659,-660.0047
1733469774,3.352182,0.990302,0.998382,-2.709197,-1.586627,-0.498502,-44.105225,-60.195816,-661.018066
1733469774,3.616142,1.150414,0.19423,-2.795192,-1.554286,-0.233543,-44.842224,-58.974182,-661.282959
1733469774,3.994576,1.306187,-0.294636,-2.853385,-1.558157,0.036564,-45.332443,-57.593109,-661.900879
1733469774,4.191349,1.770362,-0.61516,-2.89117,-1.65156,0.320092,-46.273132,-56.057419,-662.036621
1733469774,3.999813,2.467823,-0.851737,-2.904044,-1.888687,0.579708,-47.339615,-54.741226,-662.495422
1733469774,3.872621,2.953248,-1.30499,-2.879017,-2.217018,0.819682,-48.223877,-53.184082,-662.689697
1733469774,3.679888,3.573496,-2.005144,-2.853401,-2.527724,1.083819,-49.407227,-51.641342,-662.483765
1733469774,3.402161,4.383783,-3.024326,-2.892911,-2.699461,1.403249,-50.669662,-50.060989,-662.34375
1733469774,3.301604,5.232528,-4.436905,-3.022299,-2.627765,1.788978,-51.677338,-48.160828,-662.104492
1733469774,3.330185,6.075885,-5.770475,-3.240314,-2.362758,2.268392,-52.67984,-46.127548,-661.337769
1733469774,3.131616,6.736236,-7.025635,-3.492248,-1.980156,2.791243,-53.68869,-43.932892,-661.112793
1733469774,2.351256,7.403919,-8.182334,-3.730328,-1.614721,3.25588,-54.561996,-41.471939,-661.02887
1733469774,1.124976,7.776666,-9.209895,-3.869281,-1.417522,3.612353,-55.000214,-39.074036,-661.365234
1733469774,-0.201562,7.46946,-10.146028,-3.848966,-1.429185,3.84773,-55.716476,-36.782516,-661.054321
1733469774,-1.847276,6.985832,-10.732607,-3.74701,-1.609656,3.958829,-56.170578,-33.93512,-660.249146
1733469774,-3.598335,6.549339,-11.101614,-3.695747,-1.838748,3.93786,-56.574814,-31.722473,-659.054688
1733469774,-4.88462,6.638373,-11.591378,-3.808078,-1.980631,3.866847,-56.758591,-29.044052,-657.983704
1733469774,-5.860557,7.328352,-12.376975,-4.091792,-1.969198,3.831789,-56.894913,-26.394318,-657.346497
1733469774,-6.736386,8.165724,-14.037803,-4.407354,-1.911442,3.799572,-56.915985,-23.526947,-656.058228
1733469774,-7.047033,9.527726,-16.92955,-4.422633,-1.911624,3.860524,-56.783249,-21.007858,-654.658447
1733469774,-7.306804,11.067048,-19.961357,-4.001899,-2.013218,4.087889,-56.522308,-18.593796,-653.317749
1733469774,-8.430583,12.229283,-22.375161,-3.335643,-2.141135,4.381927,-55.946716,-16.279648,-652.199463
1733469774,-10.033351,12.709769,-24.426693,-2.613628,-2.073793,4.704306,-55.369293,-14.427048,-650.953369
1733469774,-12.298565,12.512547,-25.986366,-1.960182,-1.664238,4.981166,-54.739594,-12.544983,-650.302734
1733469774,-15.518467,11.762114,-26.486305,-1.484776,-1.006616,5.01907,-53.550735,-10.956604,-649.77832
1733469774,-18.269405,10.721983,-25.985468,-1.203084,-0.473023,4.736761,-52.866135,-9.87027,-649.40625
1733469774,-19.981109,10.548553,-25.40637,-0.899961,-0.361641,4.215399,-51.790329,-9.082092,-648.747864
1733469774,-20.081815,10.820894,-25.228601,-0.391987,-0.729337,3.633296,-51.190704,-8.143463,-648.508057
1733469774,-19.170522,11.131392,-25.308507,0.413205,-1.440939,3.154299,-50.279572,-7.918411,-649.111328
1733469774,-18.439992,12.179005,-25.532365,1.434148,-2.118646,2.906761,-49.786224,-7.923111,-648.952271
1733469774,-18.690036,12.786982,-25.474156,2.461585,-2.398726,2.910621,-49.397827,-8.304947,-649.009155
1733469774,-20.227113,12.361413,-24.545804,3.299294,-2.16552,2.986882,-48.95433,-8.960373,-650.379517
1733469774,-22.546496,11.711986,-22.998252,3.904732,-1.462229,3.055894,-48.432938,-9.938736,-651.46991
1733469774,-25.407268,10.776751,-20.858435,4.252948,-0.517327,2.934625,-47.521042,-11.088043,-652.560059
1733469774,-27.767053,9.683349,-18.096873,4.350657,0.367806,2.524533,-46.694763,-12.699341,-654.20459
1733469774,-28.365304,9.287856,-15.113398,4.305585,0.902273,1.975177,-46.141571,-14.118881,-655.270386
1733469774,-27.373955,9.624691,-12.365603,4.269675,0.909619,1.472184,-45.198059,-15.805878,-656.52301
1733469774,-26.330981,10.182989,-10.445154,4.352938,0.492916,1.081295,-44.972122,-17.444519,-657.44812
1733469774,-26.275914,10.789021,-9.564387,4.581642,-0.127932,0.711438,-45.108139,-19.310593,-658.317871
1733469774,-26.951678,10.948535,-9.812636,4.895996,-0.578385,0.245266,-45.122452,-21.791733,-659.56311
1733469774,-27.395802,10.811915,-10.234763,5.253198,-0.720309,-0.269387,-45.383774,-24.277527,-659.862366
1733469774,-27.377696,10.925191,-10.115352,5.604255,-0.514509,-0.777025,-45.915436,-27.22052,-660.833923
1733469774,-26.807577,11.477503,-8.989928,5.837286,-0.085347,-1.236149,-45.758972,-30.045258,-661.148193
1733469774,-25.657462,11.94153,-6.977751,5.937383,0.36535,-1.618062,-45.898148,-33.266556,-661.988403
1733469774,-23.333291,12.072014,-2.345869,5.940853,0.690664,-1.941746,-45.974915,-36.323044,-662.338867
1733469774,-23.333291,12.072014,-2.345869,5.890805,0.829281,-2.276764,-45.965775,-39.704437,-662.783081
1733469774,-22.010943,11.511322,-0.497545,5.814809,0.841684,-2.639282,-45.590424,-42.788864,-662.599915
1733469774,-19.063232,10.829124,3.06383,5.695075,0.77897,-2.98025,-45.653381,-45.897385,-662.304443
1733469774,-17.373524,10.027216,4.502296,5.256742,0.406733,-3.569094,-45.491745,-48.867706,-661.960449
1733469774,-15.642367,9.063999,5.640589,4.933788,0.221239,-3.82549,-45.151703,-51.5867,-662.495911
1733469774,-13.960889,8.367884,6.657078,4.543439,0.048017,-4.037034,-44.896179,-54.502213,-661.67157
1733469774,-12.265794,7.789385,7.416937,4.119903,-0.135373,-4.190257,-44.288162,-56.769363,-660.989929
1733469774,-10.622773,7.091027,8.000973,3.689183,-0.336078,-4.281796,-44.011475,-59.051163,-660.41394
1733469774,-9.213187,6.32997,8.338855,3.253163,-0.53278,-4.334637,-43.63002,-60.932205,-659.811096
1733469774,-8.03509,5.522376,8.505701,2.809823,-0.702595,-4.36164,-43.089294,-62.747726,-659.204773
1733469774,-6.957849,4.805911,8.628852,2.348151,-0.860559,-4.374647,-42.589493,-64.063492,-658.387939
1733469774,-5.845294,4.249409,8.518121,1.88738,-0.987856,-4.352174,-41.834778,-65.354095,-658.206055
1733469774,-4.756231,3.843591,8.31596,1.434999,-1.098529,-4.285001,-41.390381,-66.226196,-657.628479
1733469774,-3.867833,3.44765,7.894431,0.995766,-1.152941,-4.186458,-40.765259,-67.194321,-656.680115
1733469774,-3.222745,3.089418,7.35379,0.59973,-1.169775,-4.064826,-40.454285,-67.659561,-657.188232
1733469774,-2.929605,2.835184,6.801777,0.245901,-1.155019,-3.961187,-39.66066,-68.117981,-657.311157
1733469774,-2.736872,2.573019,6.281936,-0.075981,-1.103151,-3.899525,-39.182343,-68.149826,-657.118164
1733469774,-2.341679,2.333449,5.87178,-0.38372,-1.053051,-3.848534,-38.807938,-68.097412,-657.37146
1733469774,-1.656937,2.329109,5.384859,-0.675674,-1.008055,-3.774734,-37.951233,-68.043854,-657.099976
1733469774,-0.862062,2.443881,4.980987,-0.911399,-1.055873,-3.673503,-37.615509,-67.718292,-657.476135
1733469774,0.038008,2.382081,4.566491,-1.072822,-1.21828,-3.539941,-37.119354,-67.395416,-658.361938
1733469775,0.816273,2.148796,4.05488,-1.168991,-1.434067,-3.374836,-36.932922,-67.034775,-658.649658
1733469775,1.454777,1.967286,3.615693,-1.229411,-1.69531,-3.18306,-36.673599,-66.475174,-658.956787
1733469775,2.069937,1.835156,3.152715,-1.275335,-1.93634,-2.960991,-36.820282,-66.043549,-658.630432
1733469775,2.714576,1.60217,2.749441,-1.328566,-2.122432,-2.696767,-37.020554,-65.564072,-659.583557
1733469775,3.145981,1.500267,2.329409,-1.408757,-2.224029,-2.381119,-36.880997,-64.779114,-659.467224
1733469775,3.496133,1.413028,1.807473,-1.51088,-2.184024,-2.029648,-37.550858,-64.017151,-660.092468
1733469775,3.67914,1.30499,1.537227,-1.635122,-2.044097,-1.659785,-38.080261,-63.386185,-660.593018
1733469775,3.768922,1.000327,1.584513,-1.793981,-1.875539,-1.293692,-38.619308,-62.547501,-661.192139
1733469775,3.638438,0.49141,1.811363,-2.01064,-1.722851,-0.975417,-39.358627,-61.662262,-661.580994
1733469775,3.357569,0.113276,1.92434,-2.28637,-1.608533,-0.748356,-39.975082,-60.655624,-661.898804
1733469775,3.101688,-0.136918,1.776348,-2.564488,-1.562871,-0.60345,-40.678772,-59.407257,-662.895752
1733469775,2.933795,-0.135422,1.448492,-2.801067,-1.600917,-0.539419,-41.501907,-58.006516,-662.958618
1733469775,2.972102,0.147243,1.115099,-2.971764,-1.765722,-0.519207,-42.147675,-56.75798,-663.140137
1733469775,3.227234,0.901716,0.509815,-3.058003,-1.987233,-0.481169,-42.941238,-55.196533,-664.18158
1733469775,3.54282,2.120066,-0.237026,-3.096258,-2.209646,-0.385882,-43.798294,-53.786118,-664.254944
1733469775,4.249409,3.454983,-0.7639,-3.110246,-2.464295,-0.171947,-44.794922,-52.160889,-664.047607
1733469775,5.276072,4.43451,-1.322348,-3.121764,-2.767143,0.192401,-46.094254,-50.767715,-664.120117
1733469775,6.304083,4.87654,-2.167052,-3.135225,-3.093331,0.700342,-47.735535,-49.102539,-663.744629
1733469775,6.663512,5.341614,-3.306692,-3.153649,-3.291552,1.289697,-49.21431,-47.298584,-663.472107
1733469775,6.289867,6.133346,-4.301183,-3.181889,-3.396607,1.883763,-50.742081,-45.437775,-663.220764
1733469775,5.545121,6.529138,-5.229236,-3.2212,-3.451227,2.43595,-52.388367,-43.313354,-662.191956
1733469775,4.419547,7.041197,-6.125864,-3.257848,-3.502628,2.911,-54.171417,-41.299957,-661.680847
1733469775,3.067122,7.898172,-7.13113,-3.247263,-3.530756,3.325501,-55.472778,-39.185577,-660.532349
1733469775,2.125004,8.461258,-8.292168,-3.194538,-3.499378,3.749491,-56.754227,-36.751938,-659.85498
1733469775,1.303792,8.932168,-9.6829,-3.208254,-3.280083,4.232867,-57.630264,-34.238586,-659.206543
1733469775,-0.054917,9.813084,-11.089792,-3.392814,-2.828682,4.692237,-58.468552,-31.460098,-658.356201
1733469775,-1.690306,10.472986,-12.708123,-3.674643,-2.292155,5.049658,-58.955704,-28.91066,-657.685547
1733469775,-3.397821,10.594642,-14.673613,-3.816151,-1.892985,5.239492,-59.100327,-26.139511,-656.457397
1733469775,-4.898387,10.815357,-16.490513,-3.636142,-1.830855,5.306303,-58.957184,-23.390121,-655.377686
1733469775,-6.395362,11.523592,-18.391509,-3.103226,-1.993896,5.307921,-58.616852,-21.00708,-654.651184
1733469775,-7.571663,12.437728,-19.898509,-2.421077,-2.221422,5.348836,-57.954071,-18.729202,-653.22699
1733469775,-8.67943,12.84983,-20.903176,-1.806029,-2.327146,5.482425,-57.348007,-16.745728,-652.323547
1733469775,-10.70672,12.780248,-21.634156,-1.353228,-2.191575,5.5817,-56.81395,-14.887177,-650.863098
1733469775,-13.151799,12.610859,-22.123172,-1.078599,-1.862771,5.529731,-56.071991,-13.327591,-650.584167
1733469775,-15.233258,12.629114,-22.431724,-0.911987,-1.587452,5.280574,-55.080902,-11.82103,-649.903076
1733469775,-16.471659,13.194894,-23.047184,-0.602651,-1.544894,4.966869,-54.2285,-10.744766,-649.654419
1733469775,-17.058088,14.3694,-24.064719,-0.057765,-1.667536,4.70841,-53.352493,-9.82074,-649.038269
1733469775,-17.274614,14.679599,-24.872912,0.649633,-1.852851,4.50828,-53.352493,-9.82074,-649.038269
1733469775,-17.772907,14.336928,-25.456499,1.443864,-1.932842,4.371779,-52.534164,-9.24881,-648.855835
1733469775,-19.100642,14.049924,-25.379884,2.224415,-1.793399,4.198433,-51.832397,-8.893143,-649.198853
1733469775,-20.398149,13.741371,-24.372075,2.916295,-1.455501,4.009006,-51.062012,-8.840149,-649.198425
1733469775,-21.398776,13.778331,-22.967128,3.553633,-0.928052,3.900236,-50.212296,-9.38324,-650.291687
1733469775,-22.555923,13.876643,-20.373609,4.078188,-0.437788,3.85323,-48.863007,-9.969177,-651.004639
1733469775,-24.335264,13.896096,-17.492187,4.454228,0.015499,3.837384,-47.442032,-10.879562,-651.717529
1733469775,-27.023653,12.743138,-14.453047,4.57921,0.346769,3.582399,-46.762878,-11.948196,-653.957092
1733469775,-29.318496,10.845285,-11.529128,4.399649,0.416877,2.970545,-46.167465,-13.31189,-655.561707
1733469775,-30.23772,9.649231,-9.760711,4.111966,0.216381,2.123302,-45.190414,-14.728226,-656.775391
1733469775,-29.868863,9.763854,-9.337686,4.004016,-0.204066,1.27168,-44.679337,-16.207642,-657.021118
1733469775,-28.681339,10.701483,-10.017938,4.245201,-0.669535,0.630033,-44.255142,-17.850754,-657.950867
1733469775,-27.705253,11.308862,-10.630405,4.729781,-1.026405,0.150901,-44.295395,-19.52356,-658.861633
1733469775,-27.341633,11.878832,-10.598532,5.256426,-1.128255,-0.219405,-44.531906,-21.849075,-659.447083
1733469775,-27.533918,12.05271,-9.678261,5.630126,-0.936627,-0.584288,-45.172729,-24.463287,-660.313904
1733469775,-27.616218,12.080244,-7.991995,5.782865,-0.576731,-0.999085,-45.53801,-27.139191,-661.424438
1733469775,-27.246015,12.392986,-6.03279,5.784431,-0.148203,-1.394394,-45.591934,-29.892029,-660.695679
1733469775,-26.598683,12.206089,-3.714903,5.670429,0.155098,-1.804696,-46.078171,-32.905746,-661.84552
1733469775,-25.735872,11.622951,-1.564312,5.491624,0.267909,-2.247404,-46.423553,-35.842865,-662.220703
1733469775,-24.632893,10.978911,-0.085593,5.296072,0.261577,-2.723608,-46.748734,-38.863998,-662.57312
1733469775,-23.152229,10.442161,1.065569,5.087025,0.204264,-3.180674,-46.817932,-41.750183,-662.569397
1733469775,-21.377527,10.045621,2.108693,4.86463,0.094087,-3.608063,-46.812805,-44.688583,-662.452209
1733469775,-19.286342,9.77343,2.914941,4.635039,-0.034938,-3.97091,-46.870865,-47.431458,-661.907898
1733469775,-17.04507,9.500491,3.573496,4.394125,-0.15746,-4.250854,-46.774597,-50.127502,-661.927124
1733469775,-15.023615,9.159916,4.221726,4.118238,-0.275759,-4.467181,-46.650665,-52.700668,-661.579651
1733469775,-13.154492,8.733,4.812794,3.803441,-0.367441,-4.632021,-46.426849,-55.15094,-660.810059
1733469775,-11.3964,8.282142,5.363311,3.460421,-0.453377,-4.736477,-46.126633,-57.410339,-659.815613
1733469775,-9.797971,7.66758,5.917868,3.095944,-0.544857,-4.811981,-45.51889,-59.408188,-660.13623
1733469775,-8.45632,6.927772,6.282834,2.7094,-0.648802,-4.86205,-44.954941,-61.386383,-659.102844
1733469775,-7.268946,6.384737,6.4413,2.324373,-0.726007,-4.866948,-44.145279,-62.937347,-658.776855
1733469775,-5.97084,6.256348,6.415563,1.94173,-0.730115,-4.783535,-43.318741,-64.458557,-658.097412
1733469775,-4.615123,5.914127,6.470629,1.547929,-0.669279,-4.621328,-42.733322,-65.63031,-657.926636
1733469775,-3.495235,5.543325,6.720823,1.108492,-0.618212,-4.419572,-41.828918,-66.666794,-657.983459
1733469775,-2.575712,5.242853,6.739229,0.666141,-0.5794,-4.187532,-41.274429,-67.26973,-657.446533
1733469775,-1.868525,4.754286,6.431873,0.300841,-0.55012,-3.947972,-40.318634,-67.69371,-657.291138
1733469775,-1.533785,3.929483,6.199187,0.030915,-0.550803,-3.739479,-39.886032,-67.963943,-657.581726
1733469775,-1.505803,3.006219,6.136339,-0.203556,-0.619274,-3.621328,-39.090759,-68.177658,-657.08606
1733469775,-1.47004,2.255787,6.12332,-0.431379,-0.784855,-3.600294,-38.671799,-68.11264,-658.028931
1733469775,-1.319953,1.842189,5.790077,-0.645054,-0.975406,-3.623948,-38.125641,-68.056091,-658.241577
1733469775,-0.805948,1.629703,5.16968,-0.860233,-1.098973,-3.640204,-37.854294,-67.575989,-658.206238
1733469775,-0.001796,1.647061,4.717475,-1.07298,-1.214728,-3.599724,-37.138443,-67.247299,-658.652405
1733469775,0.826149,1.74642,4.180126,-1.257543,-1.340771,-3.4956,-36.993881,-66.98616,-658.870239
1733469775,1.609951,1.797447,3.473987,-1.382894,-1.454572,-3.315533,-36.416031,-66.409775,-659.260803
1733469775,2.366668,1.871218,2.925415,-1.44831,-1.560807,-3.070445,-36.154755,-65.773758,-659.877319
1733469775,2.97315,1.602319,2.577807,-1.483811,-1.69844,-2.794042,-36.325317,-65.072861,-660.018555
1733469775,3.551948,1.301099,2.230947,-1.500167,-1.80851,-2.472812,-36.534805,-64.504349,-660.373169
1733469775,4.013729,1.123629,2.120814,-1.536382,-1.858968,-2.110296,-36.590668,-63.809616,-660.562134
1733469775,4.160973,0.863559,2.281824,-1.647703,-1.872703,-1.736326,-37.033569,-63.117981,-661.754639
1733469775,4.056675,0.484227,2.294992,-1.85553,-1.796876,-1.395597,-37.416901,-62.109726,-662.012085
1733469775,3.922899,0.196025,2.214038,-2.122627,-1.685502,-1.098578,-38.041779,-60.936096,-661.942749
1733469775,3.924695,-0.003142,2.144606,-2.398861,-1.593731,-0.8424,-38.483841,-59.914261,-662.989868
1733469775,3.853468,-0.023044,2.105551,-2.67314,-1.596303,-0.635436,-39.235184,-58.833511,-663.056641
1733469775,3.579331,0.444573,1.921945,-2.921821,-1.702522,-0.470532,-40.068604,-57.373489,-663.596497
1733469775,3.330035,1.186626,1.319804,-3.115982,-1.857292,-0.342948,-40.944992,-55.81398,-663.739502
1733469775,3.243096,1.775001,0.469413,-3.242518,-2.080304,-0.231371,-41.894745,-54.444,-664.029297
1733469775,3.464709,2.18426,-0.762853,-3.268549,-2.36493,-0.101792,-42.744843,-52.779419,-664.661255
1733469775,3.949984,2.423231,-2.416198,-3.159586,-2.646459,0.098895,-43.892776,-51.281708,-663.882019
1733469775,4.430321,2.792986,-3.825934,-2.956563,-2.892916,0.382996,-45.278885,-49.695648,-664.621582
1733469775,4.951209,3.396624,-4.718373,-2.719794,-3.14312,0.753629,-46.793365,-48.395203,-664.471436
1733469775,5.197812,4.105906,-5.456535,-2.478452,-3.346322,1.211515,-48.332062,-47.001953,-664.036316
1733469775,4.970512,5.155764,-6.005406,-2.276833,-3.398335,1.72755,-49.684631,-45.570877,-663.703613
1733469775,4.491373,6.190508,-6.108806,-2.172747,-3.343594,2.280594,-51.00235,-44.064835,-663.123352
1733469775,3.833416,7.133075,-6.155492,-2.215716,-3.196631,2.865545,-52.328949,-42.445145,-662.190796
1733469776,2.842516,7.867796,-6.830059,-2.42694,-2.849666,3.453447,-53.713913,-40.7285,-661.744202
1733469776,1.764826,8.04362,-7.718906,-2.845905,-2.302298,3.979921,-54.721558,-38.474197,-661.387939
1733469776,0.438438,7.924658,-8.756493,-3.402025,-1.758712,4.373522,-55.70433,-35.984756,-661.090698
1733469776,-1.476624,7.892486,-10.395773,-3.852729,-1.35406,4.558347,-55.998611,-33.488586,-660.039368
1733469776,-3.385401,8.029554,-12.13127,-3.999264,-1.318501,4.531793,-56.426132,-30.762939,-659.512695
1733469776,-4.538359,8.042423,-13.754988,-3.760609,-1.723933,4.368439,-56.735001,-28.558853,-659.251831
1733469776,-5.311836,8.475474,-15.243583,-3.179809,-2.39183,4.22439,-56.739853,-26.076172,-657.811157
1733469776,-5.705233,9.472958,-17.016639,-2.545484,-2.893061,4.25615,-56.966171,-23.725906,-656.52063
1733469776,-6.444443,9.825804,-18.651579,-2.086884,-2.989678,4.437748,-57.401581,-21.948181,-656.069336
1733469776,-8.108862,10.009708,-20.093487,-1.801967,-2.703501,4.620351,-57.222977,-20.076584,-654.082397
1733469776,-9.748591,10.338462,-21.490354,-1.604341,-2.170045,4.752821,-56.541611,-18.574219,-653.631287
1733469776,-11.294946,11.319037,-22.321292,-1.419261,-1.692562,4.83803,-56.183304,-16.794678,-653.04834
1733469776,-13.057826,12.424859,-23.188442,-1.112374,-1.422909,4.898394,-55.301987,-15.343674,-652.101807
1733469776,-15.023615,12.573898,-24.59713,-0.604485,-1.276885,4.918766,-54.371765,-14.030853,-651.861938
1733469776,-17.456872,11.674875,-25.90182,0.064055,-1.170565,4.802631,-53.799438,-12.989456,-651.607605
1733469776,-19.782241,10.404452,-26.648811,0.832794,-1.057259,4.475513,-53.065933,-12.506287,-651.6297
1733469776,-20.86861,9.6413,-26.392183,1.581297,-0.982314,4.034261,-52.38237,-12.568344,-651.876465
1733469776,-20.762666,9.691579,-25.168297,2.248832,-0.965443,3.583499,-51.478989,-12.43866,-652.292908
1733469776,-20.08825,10.808623,-23.145795,2.816257,-1.037727,3.329314,-50.759781,-13.152893,-652.525757
1733469776,-20.226964,11.876886,-21.468657,3.3799,-1.019237,3.350929,-49.712265,-13.776199,-653.29834
1733469776,-21.945851,11.872247,-20.045304,3.897897,-0.792246,3.491199,-48.76033,-14.712753,-654.395325
1733469776,-24.979604,10.372879,-18.526931,4.228011,-0.344811,3.4456,-48.281113,-15.746155,-655.573853
1733469776,-28.02862,8.30369,-16.843957,4.32783,0.257638,3.093616,-47.727127,-17.060104,-656.665405
1733469776,-29.88667,6.597223,-14.365509,4.190718,0.701624,2.439457,-46.768158,-18.372574,-657.636169
1733469776,-29.897144,6.60665,-12.041488,3.987829,0.793128,1.759344,-46.050385,-19.959244,-658.317139
1733469776,-29.23844,7.761553,-10.730213,3.947527,0.626391,1.206701,-45.336472,-21.317963,-659.288452
1733469776,-28.506263,8.185027,-9.988909,4.102207,0.253425,0.743489,-45.035095,-23.346375,-660.617493
1733469776,-28.031912,8.157344,-9.712827,4.370574,-0.117869,0.313386,-45.332367,-25.218704,-660.804199
1733469776,-28.054058,7.977031,-9.70759,4.663133,-0.261738,-0.169782,-45.662399,-27.619507,-661.962463
1733469776,-27.829302,7.757962,-9.163657,4.881348,-0.222521,-0.737128,-45.857101,-29.70929,-661.805481
1733469776,-26.913819,8.362797,-7.917326,5.007423,-0.09697,-1.2561,-46.078873,-32.519394,-661.804565
1733469776,-25.479842,9.26975,-6.30932,5.056873,0.053871,-1.677588,-45.953537,-35.236328,-662.436768
1733469776,-23.999178,9.815329,-4.626495,5.045946,0.183701,-1.988627,-46.061676,-38.014725,-661.849976
1733469776,-22.72232,9.858574,-3.212121,4.989665,0.311497,-2.23666,-46.02829,-40.5327,-662.612366
1733469776,-21.649419,9.34427,-2.029984,4.889904,0.496521,-2.488855,-46.15773,-43.348145,-662.894897
1733469776,-20.634876,8.733599,-0.647482,4.735816,0.662003,-2.771181,-45.864716,-45.867874,-662.642517
1733469776,-19.421165,8.220791,0.823306,4.549365,0.737389,-3.076985,-45.811584,-48.430145,-662.630127
1733469776,-17.852814,7.775918,2.173486,4.346536,0.711314,-3.376947,-45.263565,-50.853348,-662.400818
1733469776,-16.030976,7.435193,3.279907,4.105544,0.630206,-3.645161,-45.014984,-53.431213,-662.046204
1733469776,-14.176816,7.058705,4.217985,3.823984,0.511195,-3.869346,-44.713211,-55.596771,-661.481995
1733469776,-12.406903,6.754941,4.828357,3.511778,0.401207,-4.049212,-43.817413,-57.57695,-660.849243
1733469776,-10.636091,6.564602,5.207838,3.191261,0.321316,-4.149873,-43.136124,-59.383911,-660.655579
1733469776,-8.863484,6.242282,5.65675,2.890567,0.207487,-4.158105,-42.439804,-60.91449,-659.860596
1733469776,-7.289147,5.675754,6.04102,2.612499,0.058115,-4.107542,-41.883926,-62.304214,-660.086548
1733469776,-6.04895,4.945373,6.411373,2.334557,-0.120821,-4.029609,-41.309235,-63.634842,-659.330811
1733469776,-5.18599,4.1912,6.874352,2.041932,-0.338605,-3.961047,-40.721268,-64.904938,-659.110229
1733469776,-4.481197,3.40246,7.274931,1.725145,-0.558803,-3.927871,-40.075104,-65.646042,-658.507141
1733469776,-3.863942,2.962226,7.459135,1.361431,-0.761483,-3.890829,-39.357971,-66.497192,-658.203979
1733469776,-3.117849,2.847304,7.343615,0.954958,-0.871374,-3.831336,-38.82309,-66.820328,-658.349365
1733469776,-2.307861,2.901323,7.15567,0.522319,-0.917849,-3.729074,-38.377609,-66.997818,-657.744629
1733469776,-1.50311,3.083881,6.881983,0.107316,-0.95148,-3.579724,-37.852097,-67.064026,-658.094788
1733469776,-0.653467,3.035997,6.510583,-0.261988,-1.03616,-3.401222,-37.873032,-66.886688,-658.193115
1733469776,0.087837,2.614767,6.013636,-0.56175,-1.154112,-3.202925,-37.48053,-66.738052,-658.006409
1733469776,0.565929,2.124106,5.217414,-0.782643,-1.248462,-3.011172,-37.241821,-66.4478,-658.790405
1733469776,0.837222,1.759589,4.510227,-0.926161,-1.311658,-2.825204,-37.095444,-66.038696,-659.070007
1733469776,1.156399,1.373673,3.737349,-1.012928,-1.305436,-2.639808,-36.985413,-65.639236,-659.893616
1733469776,1.575385,1.058836,3.123535,-1.074414,-1.254822,-2.432504,-36.763687,-65.191116,-659.987427
1733469776,1.980005,0.841712,2.837877,-1.111893,-1.203448,-2.210609,-36.96489,-64.592804,-660.042969
1733469776,2.354697,0.684742,2.799869,-1.140828,-1.17109,-1.982209,-36.998947,-64.251633,-660.897339
1733469776,2.748843,0.611569,3.110517,-1.194076,-1.206024,-1.738872,-37.193802,-63.606537,-660.888916
1733469776,2.916736,0.397737,3.619434,-1.307396,-1.32746,-1.49928,-37.384064,-62.952179,-661.169189
1733469776,2.973898,0.22715,4.031387,-1.481985,-1.490304,-1.289063,-38.160339,-62.190872,-661.420532
1733469776,2.889053,0.075268,4.216638,-1.712896,-1.691313,-1.105862,-38.58078,-61.686066,-660.999939
1733469776,2.823213,0.004489,3.975871,-1.967144,-1.851393,-0.938412,-39.157608,-60.467468,-662.122375
1733469776,2.831892,0.019004,3.576339,-2.220032,-1.997681,-0.802434,-40.094101,-59.461502,-662.880127
1733469776,2.967463,0.032471,3.01011,-2.415065,-2.194811,-0.675109,-41.379807,-58.174118,-663.41571
1733469776,3.086874,0.364368,2.256535,-2.517222,-2.405998,-0.544285,-42.181381,-57.149063,-663.778503
1733469776,3.276166,0.883909,1.799991,-2.56574,-2.683886,-0.418451,-43.491379,-55.897125,-663.557983
1733469776,3.610157,1.435174,1.346439,-2.575867,-3.015294,-0.246412,-44.895599,-54.511276,-663.598389
1733469776,4.027346,2.093879,0.713472,-2.569246,-3.363824,-0.022253,-46.665344,-53.281143,-663.484131
1733469776,4.57502,2.68809,-0.066589,-2.550911,-3.681004,0.295178,-48.382843,-51.964325,-663.297363
1733469776,5.223998,3.298761,-0.923863,-2.548334,-3.907962,0.703458,-50.130219,-50.6129,-663.109558
1733469776,5.664083,4.161721,-1.557129,-2.595193,-4.065322,1.209119,-51.971878,-49.070572,-661.971252
1733469776,5.709273,5.546168,-2.004246,-2.739425,-4.072605,1.826549,-53.632568,-47.148026,-661.474609
1733469776,4.903026,7.338378,-2.283021,-3.055886,-3.950414,2.494408,-55.576019,-45.062775,-661.038391
1733469776,3.190124,8.741081,-3.086126,-3.517716,-3.803128,3.10605,-57.232803,-42.553726,-660.493103
1733469776,1.216853,9.297433,-4.990414,-3.891565,-3.601997,3.588861,-58.267227,-39.76561,-659.590942
1733469776,-0.481683,10.114155,-7.162554,-4.121157,-3.342473,4.009946,-59.573975,-37.056671,-658.701721
1733469776,-2.239327,11.138874,-9.060108,-4.281194,-3.118585,4.342909,-60.269623,-33.889557,-657.529541
1733469776,-3.909133,11.732187,-11.372608,-4.273993,-2.922366,4.618213,-61.001205,-30.833191,-656.351807
1733469776,-5.73935,12.101343,-13.833398,-4.114761,-2.689663,4.815979,-61.436279,-27.939972,-655.529175
1733469776,-7.512107,11.62759,-16.324116,-3.846532,-2.380634,4.863795,-61.309891,-25.342392,-654.173462
1733469776,-9.046341,11.247361,-18.3538,-3.456112,-2.051153,4.81626,-61.235382,-22.789917,-652.243103
1733469776,-10.193164,11.552921,-19.774609,-3.022026,-1.789582,4.760932,-60.961899,-20.772018,-652.606079
1733469776,-11.019313,11.986271,-20.87684,-2.582355,-1.606827,4.728276,-60.087479,-18.606796,-651.357422
1733469776,-12.070667,12.192023,-22.019772,-2.124439,-1.436559,4.724451,-60.087479,-18.606796,-651.357422
1733469776,-13.538612,12.207735,-23.022194,-1.643831,-1.283396,4.657582,-59.494797,-16.54686,-650.322388
1733469776,-14.389451,12.620136,-24.121282,-1.107244,-1.162339,4.637194,-58.575226,-15.029434,-649.325684
1733469776,-14.91842,12.770672,-25.297584,-0.50292,-1.00653,4.739942,-57.380447,-13.653214,-649.317444
1733469776,-16.359281,12.25921,-26.05475,0.159226,-0.789689,4.800844,-56.450851,-12.507217,-649.033813
1733469776,-18.163312,11.45431,-26.007165,0.835953,-0.568303,4.7411,-55.283524,-11.752029,-649.24707
1733469776,-19.873819,10.935815,-25.052777,1.473129,-0.464231,4.597849,-54.279358,-11.119431,-649.530579
1733469776,-21.38067,10.263344,-23.914633,2.055396,-0.408017,4.361458,-53.03447,-10.859253,-650.025635
1733469776,-22.658575,9.613019,-22.38414,2.542701,-0.426695,4.073623,-52.058411,-11.023407,-649.924805
1733469776,-24.05619,9.376592,-21.005229,2.970678,-0.452835,3.728656,-51.029572,-11.304977,-651.19165
1733469776,-25.046791,9.035867,-19.981259,3.340887,-0.409195,3.386791,-50.152435,-11.815186,-652.124146
1733469776,-25.855582,8.526351,-19.092711,3.680307,-0.240639,3.046812,-49.210297,-12.803741,-652.964722
1733469776,-26.56666,8.235904,-17.916559,3.933505,0.065142,2.711795,-48.636871,-13.789322,-653.938477
1733469776,-27.203817,8.100033,-15.994315,4.034884,0.341638,2.356793,-47.589432,-14.942261,-655.494446
1733469776,-27.688942,7.801057,-14.107085,4.017786,0.467539,1.92306,-47.237473,-16.247665,-656.292358
1733469777,-27.83035,7.58513,-12.735656,3.999618,0.341537,1.376878,-46.811447,-17.923294,-657.267456
1733469777,-27.335199,7.989301,-12.108376,4.094778,0.08507,0.829635,-46.637268,-19.420914,-658.46759
1733469777,-26.557383,9.190442,-11.752537,4.300155,-0.185389,0.37543,-45.910934,-21.321213,-658.969849
1733469777,-26.07944,10.566809,-11.695525,4.62677,-0.380487,0.039872,-46.170883,-23.419342,-659.241699
1733469777,-25.887305,11.374553,-11.601703,5.062934,-0.345498,-0.203177,-46.020569,-25.747147,-660.356201
1733469777,-26.144383,11.684602,-10.105626,5.425524,-0.157427,-0.452986,-46.154846,-28.258575,-661.231812
1733469777,-26.614993,11.721263,-7.71337,5.600429,0.09398,-0.781859,-46.323959,-30.872971,-661.64563
1733469777,-26.551247,11.22297,-5.234323,5.557118,0.378889,-1.202508,-46.56459,-33.739258,-662.093079
1733469777,-25.813235,10.663325,-2.713977,5.345221,0.564114,-1.689301,-46.651337,-36.6008,-662.222168
1733469777,-24.376115,10.272921,-0.624737,5.070193,0.587789,-2.179955,-46.309433,-39.391541,-662.42395
1733469777,-22.398505,10.045472,0.962619,4.793635,0.475826,-2.609747,-46.347748,-42.148727,-662.59729
1733469777,-20.280384,10.016891,2.120514,4.536034,0.314863,-2.91716,-46.469742,-44.710846,-662.356934
1733469777,-18.366519,9.702353,2.846706,4.263078,0.178638,-3.138444,-46.429642,-47.022797,-662.110107
1733469777,-16.675764,9.288156,3.18369,3.986127,0.114587,-3.290373,-46.335144,-49.449539,-661.312927
1733469777,-15.238495,8.786271,3.415329,3.724281,0.142713,-3.392794,-46.247772,-51.542786,-661.637512
1733469777,-13.991116,8.016685,3.986196,3.429573,0.168291,-3.521061,-45.953049,-53.559052,-661.315491
1733469777,-12.662783,7.307253,4.452018,3.098328,0.170193,-3.666945,-45.614838,-55.530197,-661.024475
1733469777,-11.20217,6.779182,4.810101,2.765299,0.122412,-3.80185,-45.221024,-57.076263,-660.39563
1733469777,-9.679608,6.361394,4.970662,2.445103,0.024966,-3.890712,-44.734192,-58.741776,-660.247498
1733469777,-8.345588,5.874772,4.975001,2.150616,-0.07012,-3.93207,-44.127975,-60.174042,-659.830566
1733469777,-7.258172,5.251532,5.035605,1.571918,-0.246402,-3.959093,-43.55748,-61.319275,-659.539429
1733469777,-5.813571,4.157232,4.712387,1.312114,-0.268262,-3.949099,-42.939331,-62.283386,-659.554688
1733469777,-5.055656,3.638887,4.556016,1.068272,-0.250495,-3.921731,-42.347641,-63.159332,-659.289612
1733469777,-4.406977,3.365649,4.582652,0.83137,-0.261836,-3.880512,-41.513748,-63.815948,-658.557617
1733469777,-3.750816,3.384952,4.514118,0.611142,-0.249524,-3.805154,-40.942261,-64.296494,-658.758301
1733469777,-3.047519,3.298761,4.568586,0.384006,-0.239891,-3.708375,-39.999176,-64.827072,-658.99353
1733469777,-2.428319,3.133561,4.619612,0.146176,-0.267462,-3.593398,-39.426208,-65.053497,-658.872803
1733469777,-1.753304,3.003676,4.593276,-0.064682,-0.341037,-3.458428,-38.765747,-65.198334,-658.962646
1733469777,-1.06946,2.744354,4.714931,-0.241654,-0.503483,-3.327187,-38.113892,-65.333542,-659.090942
1733469777,-0.477194,2.430264,4.863072,-0.416827,-0.78707,-3.208793,-37.675919,-65.424377,-659.158813
1733469777,-0.018555,2.021903,4.539257,-0.568283,-1.082582,-3.103243,-37.261078,-65.214523,-660.051453
1733469777,0.382773,1.599177,3.777751,-0.67817,-1.27012,-2.987119,-37.083923,-65.116104,-659.806152
1733469777,0.859069,1.264438,2.983175,-0.757225,-1.294644,-2.841,-36.807663,-64.823608,-660.071594
1733469777,1.446397,1.052252,2.609231,-0.831427,-1.218024,-2.656215,-36.649048,-64.532242,-659.762695
1733469777,2.040309,0.874781,2.859275,-0.933449,-1.16752,-2.437359,-36.573578,-64.226456,-660.661865
1733469777,2.52708,0.713771,3.225439,-1.07527,-1.149287,-2.189594,-36.585938,-63.624771,-660.727661
1733469777,2.897732,0.445621,3.454234,-1.260425,-1.161213,-1.932324,-36.637619,-63.181686,-660.949951
1733469777,3.102436,0.045041,3.566313,-1.462679,-1.221364,-1.684782,-36.852692,-62.607849,-661.35437
1733469777,3.21661,-0.187646,3.692607,-1.649487,-1.36395,-1.465908,-36.964554,-61.837921,-661.604431
1733469777,3.248932,-0.364368,3.787328,-1.824978,-1.597346,-1.26989,-37.408859,-61.10437,-661.951904
1733469777,3.187131,-0.571017,3.488202,-1.995936,-1.816808,-1.111888,-37.92511,-60.288147,-662.533142
1733469777,3.201197,-0.452803,2.883367,-2.175188,-1.950959,-0.951039,-38.519669,-59.276718,-663.232544
1733469777,3.365799,0.023194,2.328511,-2.351037,-2.053487,-0.77168,-39.533218,-58.133652,-663.172241
1733469777,3.584718,0.632668,1.753304,-2.502916,-2.173234,-0.575785,-40.276611,-57.059464,-662.768433
1733469777,4.119523,1.154903,0.944213,-2.625468,-2.287083,-0.304846,-41.130707,-55.697083,-663.64624
1733469777,4.611681,1.802235,-0.027384,-2.712464,-2.394156,0.023274,-42.035995,-54.417786,-664.011108
1733469777,4.948216,2.438644,-0.945111,-2.695931,-2.560984,0.380394,-43.420853,-53.204544,-664.013184
1733469777,5.327548,2.902072,-1.791312,-2.575688,-2.762746,0.785188,-44.832977,-51.620773,-664.283386
1733469777,5.393388,3.724181,-2.227206,-2.424395,-2.999502,1.234018,-45.874893,-50.450653,-664.225586
1733469777,5.230582,4.445733,-2.658462,-2.30813,-3.182605,1.739069,-47.474411,-49.234161,-664.571777
1733469777,4.706252,4.980239,-3.27018,-2.287767,-3.244576,2.266134,-49.183517,-47.880295,-663.501953
1733469777,3.658939,5.880608,-4.126257,-2.349917,-3.230364,2.748274,-50.630127,-46.294174,-663.520264
1733469777,2.606687,6.402245,-5.857564,-2.398037,-3.174215,3.177289,-52.212036,-44.573196,-663.124512
1733469777,1.550694,6.373215,-8.393772,-2.310632,-2.98803,3.538829,-53.586334,-42.987869,-662.282776
1733469777,0.905607,6.674885,-10.83062,-2.076815,-2.676054,3.890206,-54.781021,-41.217255,-661.606628
1733469777,0.638504,7.324312,-12.885893,-1.779926,-2.22286,4.30955,-55.455383,-39.452454,-661.130188
1733469777,0.126743,8.017134,-14.34037,-1.534641,-1.605964,4.791248,-56.082138,-37.725967,-660.370483
1733469777,-1.017536,9.077167,-15.195848,-1.459642,-0.804759,5.296409,-56.177673,-35.87175,-660.199463
1733469777,-2.567632,9.321076,-15.643863,-1.605078,-0.009541,5.729805,-55.786972,-34.004135,-659.92627
1733469777,-4.376601,8.486996,-16.205154,-1.814106,0.666196,5.98349,-55.44519,-31.925568,-659.708496
1733469777,-6.603657,7.466168,-16.686089,-2.103104,1.017369,5.963112,-54.60463,-29.929001,-659.799438
1733469777,-8.393173,6.014235,-17.158794,-2.401518,0.927986,5.650572,-53.956909,-27.950806,-659.726746
1733469777,-9.461436,5.606771,-17.913267,-2.598818,0.427612,5.15807,-53.137894,-25.756622,-659.480957
1733469777,-9.764153,6.443844,-19.023279,-2.722237,-0.340067,4.691674,-52.558914,-23.949768,-659.464539
1733469777,-9.736171,7.684789,-20.786459,-2.713362,-1.183991,4.352262,-51.679092,-21.532043,-658.124939
1733469777,-10.004471,9.631424,-23.544729,-2.426999,-1.960138,4.2026,-51.170395,-19.736313,-657.012451
1733469777,-10.69849,11.489774,-26.962152,-1.722156,-2.562684,4.304592,-51.052002,-18.273575,-656.156128
1733469777,-12.822446,11.858032,-30.238917,-0.713913,-2.731581,4.444767,-51.0952,-16.995956,-655.226379
1733469777,-15.895105,11.139472,-31.686511,0.354778,-2.603549,4.403574,-50.865723,-16.29184,-654.977295
1733469777,-18.550574,9.92651,-31.993268,1.352517,-2.143682,4.158035,-50.893524,-15.935944,-654.941467
1733469777,-20.378547,9.186402,-30.545823,2.149024,-1.485257,3.812466,-50.567352,-16.031677,-655.129333
1733469777,-21.255124,9.101109,-27.421689,2.719291,-0.803206,3.485691,-49.883377,-16.527893,-655.813782
1733469777,-21.59959,9.496601,-23.629573,3.127974,-0.270182,3.263991,-49.074844,-17.137131,-656.180237
1733469777,-22.2767,9.814132,-19.81995,3.390729,0.077844,3.134309,-48.31926,-18.205948,-656.877869
1733469777,-23.638252,9.474903,-16.692673,3.452311,0.351769,2.987424,-47.403656,-19.105453,-657.826904
1733469777,-25.579501,8.732252,-14.458883,3.338974,0.613332,2.734219,-46.743347,-20.101791,-658.388428
1733469777,-27.533319,7.439832,-12.94904,3.11379,0.774338,2.190014,-46.077179,-21.156448,-659.761108
1733469777,-28.231528,6.603657,-12.308441,2.956414,0.609235,1.419958,-45.438278,-22.399033,-660.346375
1733469777,-27.578809,7.227945,-12.700342,3.108772,0.168933,0.648641,-45.400116,-23.545914,-660.638672
1733469777,-26.051308,8.710854,-13.356054,3.58603,-0.251997,0.044983,-44.920166,-25.304611,-660.865662
1733469777,-24.459164,10.329334,-13.185467,4.195553,-0.527181,-0.339054,-44.924194,-27.351166,-662.388306
1733469777,-23.678954,11.712734,-12.1398,4.73279,-0.563141,-0.555158,-45.076401,-29.284302,-661.748779
1733469777,-23.450906,12.008268,-10.483311,5.051663,-0.356669,-0.732008,-45.28656,-31.913498,-661.588135
1733469777,-23.564032,11.649736,-8.631696,5.151729,0.027333,-0.948638,-45.375336,-34.434753,-662.606445
1733469777,-23.634062,11.186758,-6.721123,5.119971,0.457495,-1.227749,-45.309067,-37.203613,-662.557068
1733469777,-23.370551,10.727071,-4.511574,5.036856,0.706981,-1.567612,-45.095535,-39.761307,-662.667419
1733469777,-22.740277,10.61604,-2.659808,4.937709,0.768116,-1.911426,-44.665558,-42.45192,-662.999451
1733469777,-21.765089,10.247033,-1.212663,4.826747,0.695952,-2.260267,-44.612167,-45.013794,-662.868042
1733469777,-20.688297,9.736919,-0.058209,4.694201,0.568496,-2.596417,-44.235489,-47.500595,-662.823059
1733469777,-19.503017,9.252093,0.781408,4.522418,0.481783,-2.916122,-44.130096,-50.197327,-662.188354
1733469777,-18.128446,8.726117,1.640926,4.280703,0.424699,-3.204881,-43.670624,-52.538681,-662.019897
1733469777,-16.591818,8.289175,2.404976,3.968887,0.383987,-3.446824,-43.299774,-54.702148,-661.447998
1733469777,-15.015834,7.865551,2.896086,3.626356,0.352563,-3.639243,-42.600693,-56.917221,-660.57489
1733469777,-13.565846,7.44477,3.326893,3.279451,0.317624,-3.79303,-42.02475,-58.376816,-660.671997
1733469777,-12.231078,7.086687,3.665672,2.94247,0.262155,-3.909759,-41.53804,-60.134689,-660.280884
1733469777,-11.134534,6.561609,4.009839,2.620525,0.171293,-4.010066,-40.634537,-61.622635,-659.56012
1733469777,-10.309133,5.954679,4.303278,2.316892,0.035726,-4.114552,-39.962692,-62.932266,-659.341248
1733469777,-9.597906,5.484667,4.495563,2.036699,-0.123997,-4.207508,-39.160004,-64.105011,-658.566895
1733469777,-8.850915,5.174917,4.482095,1.768329,-0.275517,-4.290449,-38.33905,-64.934204,-658.328308
1733469777,-8.009802,5.037251,4.30657,1.503788,-0.372743,-4.324172,-37.254944,-65.724686,-658.149292
1733469778,-6.980145,5.111022,4.180426,1.222658,-0.441052,-4.286375,-36.508224,-66.31955,-658.016785
1733469778,-6.108357,5.047127,3.882497,0.940045,-0.454112,-4.202998,-35.617264,-66.842514,-657.705261
1733469778,-5.571307,4.825663,3.581127,0.683382,-0.423096,-4.107947,-34.791931,-67.298965,-656.796997
1733469778,-5.068226,4.495413,3.434033,0.455891,-0.381673,-4.015898,-34.15239,-67.318039,-657.437561
1733469778,-4.455011,4.303577,3.371036,0.246807,-0.357796,-3.920807,-33.564407,-67.381104,-657.58136
1733469778,-3.766827,3.942053,3.524863,0.052714,-0.436529,-3.855804,-32.440201,-67.32576,-657.675293
1733469778,-3.049165,3.43149,3.395277,-0.105558,-0.556037,-3.797456,-32.017059,-67.173813,-658.056946
1733469778,-2.322675,2.93993,3.218555,-0.22018,-0.707834,-3.739554,-31.528412,-67.017288,-658.201172
1733469778,-1.683423,2.48159,3.276914,-0.30695,-0.893288,-3.69053,-31.137909,-66.629852,-657.985168
1733469778,-1.063175,2.048988,3.388544,-0.395667,-1.133978,-3.633449,-30.352859,-66.296631,-658.452209
1733469778,-0.438887,1.699883,3.499724,-0.483239,-1.40549,-3.557415,-30.119095,-66.115768,-658.82782
1733469778,0.091429,1.430835,3.502867,-0.566156,-1.666368,-3.463078,-30.022461,-65.583832,-659.12384
1733469778,0.634164,1.091457,3.429844,-0.674366,-1.866671,-3.342138,-29.907227,-65.18158,-658.824768
1733469778,1.26354,0.840066,3.32405,-0.827654,-1.964885,-3.177476,-29.876053,-64.471512,-659.768677
1733469778,1.999907,0.788889,3.362956,-1.043785,-1.976624,-2.947177,-30.030716,-63.82872,-660.277283
1733469778,2.569577,0.706738,3.55913,-1.32989,-1.942766,-2.694182,-30.387726,-62.873169,-660.744446
1733469778,3.025074,0.611719,3.67899,-1.655443,-1.925831,-2.445791,-30.922073,-62.039658,-661.231445
1733469778,3.380014,0.604087,3.689165,-1.990144,-1.952836,-2.225646,-31.385483,-61.06929,-661.833252
1733469778,3.675399,0.735469,3.466056,-2.281039,-2.093001,-2.022035,-31.961517,-59.708878,-661.857361
1733469778,4.005499,0.747739,2.880823,-2.482192,-2.329952,-1.835581,-32.922775,-58.482681,-662.717407
1733469778,4.422689,0.952144,2.014721,-2.57426,-2.621665,-1.628525,-33.594086,-57.18631,-663.684509
1733469778,4.957793,1.608155,0.908151,-2.56677,-2.902504,-1.36474,-35.011368,-55.94368,-663.730652
1733469778,5.609465,2.144905,-0.205303,-2.507797,-3.12878,-1.057734,-36.584991,-54.789352,-663.790405
1733469778,6.401497,2.458695,-1.11076,-2.449235,-3.324162,-0.724391,-38.142578,-53.377945,-664.263794
1733469778,7.293038,2.992303,-1.871667,-2.371789,-3.564524,-0.335301,-39.694885,-52.346344,-664.531372
1733469778,8.290971,3.664026,-2.606238,-2.238015,-3.88749,0.142988,-41.468002,-51.159576,-664.606934
1733469778,9.220071,4.524592,-3.383605,-2.021432,-4.276867,0.751266,-43.626358,-50.379822,-664.528625
1733469778,9.915137,5.536442,-4.336947,-1.708828,-4.696544,1.518268,-45.84256,-49.439987,-664.067749
1733469778,9.981427,6.669498,-5.387253,-1.339787,-5.024947,2.446028,-48.24086,-48.398819,-663.318787
1733469778,9.21199,7.505673,-6.591836,-1.000301,-5.116655,3.445335,-50.296524,-47.226837,-662.684387
1733469778,7.905055,8.049605,-8.209568,-0.748227,-4.803698,4.463132,-52.556747,-46.019424,-661.497498
1733469778,5.686079,9.021053,-9.250597,-0.670553,-4.124922,5.415523,-54.481583,-44.613022,-660.99939
1733469778,2.764255,9.323919,-9.750686,-0.830803,-3.213326,6.17462,-55.949356,-43.069504,-659.821167
1733469778,-0.658106,8.861838,-10.139444,-1.184534,-2.208159,6.640909,-57.028229,-40.740875,-660.044678
1733469778,-4.108001,8.068011,-9.710134,-1.712334,-1.391662,6.76663,-57.028229,-40.740875,-660.044678
1733469778,-6.871209,6.952013,-9.649082,-2.380318,-0.819603,6.640025,-57.590179,-38.236237,-659.514526
1733469778,-8.941595,6.264578,-10.82658,-3.17124,-0.305148,6.35761,-57.43663,-35.467957,-659.72876
1733469778,-10.530297,6.447735,-12.285995,-4.017935,0.092334,5.948298,-56.80838,-32.707626,-659.36792
1733469778,-11.450569,7.407361,-14.75741,-4.647266,0.323075,5.514697,-56.224609,-29.431351,-658.782166
1733469778,-11.710938,8.637681,-18.007689,-4.859591,0.381526,5.117558,-55.488937,-26.202011,-658.386902
1733469778,-11.083657,9.883414,-21.311238,-4.529288,0.293198,4.913333,-54.25383,-23.294632,-657.961182
1733469778,-10.778546,11.53676,-23.528119,-3.780666,-0.00699,4.940357,-53.511688,-20.293991,-656.597717
1733469778,-11.319337,11.66889,-24.955063,-2.878999,-0.321609,5.023039,-52.070038,-18.250366,-655.890686
1733469778,-13.043012,10.899902,-25.541792,-2.092001,-0.469926,5.02431,-51.457001,-16.344482,-654.46759
1733469778,-15.715689,9.830442,-25.393202,-1.583738,-0.558748,4.755533,-50.631424,-14.837204,-654.861145
1733469778,-17.662624,8.977059,-25.876681,-1.163955,-0.673988,4.218529,-49.764847,-13.476013,-654.131409
1733469778,-17.838299,9.281871,-26.558131,-0.656975,-0.870389,3.659401,-48.913132,-12.444626,-653.750366
1733469778,-16.837522,10.630106,-26.633847,-0.071144,-1.15497,3.330936,-48.282227,-11.967224,-653.366516
1733469778,-16.307356,12.110471,-26.532692,0.589856,-1.435179,3.243909,-47.520782,-11.386536,-653.267761
1733469778,-16.832584,12.898911,-26.659585,1.320297,-1.538841,3.275043,-47.092682,-11.18985,-653.342041
1733469778,-18.210447,13.281235,-26.505758,2.074697,-1.368873,3.350726,-45.961716,-11.438263,-653.81897
1733469778,-20.489428,13.199383,-25.972,2.77603,-0.925989,3.372951,-45.523758,-11.978165,-654.404358
1733469778,-23.07756,12.36665,-24.703822,3.368506,-0.391918,3.19714,-44.917206,-13.033722,-655.450012
