mean_acceleration_x,std_acceleration_x,mad_acceleration_x,max_acceleration_x,min_acceleration_x,energy_acceleration_x,bandsEnergy_acceleration_x,iqr_acceleration_x,meanFreq_acceleration_x,skewness_acceleration_x,kurtosis_acceleration_x,mean_acceleration_y,std_acceleration_y,mad_acceleration_y,max_acceleration_y,min_acceleration_y,energy_acceleration_y,bandsEnergy_acceleration_y,iqr_acceleration_y,meanFreq_acceleration_y,skewness_acceleration_y,kurtosis_acceleration_y,mean_acceleration_z,std_acceleration_z,mad_acceleration_z,max_acceleration_z,min_acceleration_z,energy_acceleration_z,bandsEnergy_acceleration_z,iqr_acceleration_z,meanFreq_acceleration_z,skewness_acceleration_z,kurtosis_acceleration_z,mean_gyro_x,std_gyro_x,mad_gyro_x,max_gyro_x,min_gyro_x,energy_gyro_x,bandsEnergy_gyro_x,iqr_gyro_x,meanFreq_gyro_x,skewness_gyro_x,kurtosis_gyro_x,mean_gyro_y,std_gyro_y,mad_gyro_y,max_gyro_y,min_gyro_y,energy_gyro_y,bandsEnergy_gyro_y,iqr_gyro_y,meanFreq_gyro_y,skewness_gyro_y,kurtosis_gyro_y,mean_gyro_z,std_gyro_z,mad_gyro_z,max_gyro_z,min_gyro_z,energy_gyro_z,bandsEnergy_gyro_z,iqr_gyro_z,meanFreq_gyro_z,skewness_gyro_z,kurtosis_gyro_z,sma_acc,sma_gyro,angle_acc_gyro,label
5.1164059,17.380433777814847,10.424653,46.241012,-34.851047,325.236292855512,27576.123755808454,17.840954999999997,-0.0012205230812949264,-0.3705380345293414,0.09511808365738217,-1.55678923,9.30609517190466,6.323684999999999,22.122423,-14.308198,88.16096598170576,7099.858704670254,12.72776325,-0.0011643263555759832,0.6558749239298307,-0.27412097279259084,-1.4479967099999995,4.623670545252697,2.343998,9.252692,-13.311163,23.261240490097826,1981.7527809618543,4.05353325,-0.00013999014421267315,-0.33633806630736,0.4266546304585952,0.60949961,1.539846524253293,1.044745,3.828057,-4.05316,2.71890581966255,241.44095952011088,2.0977105,-3.4333383128322163e-05,-0.666361478584443,0.5825378770370451,-0.53694577,0.7291018006851586,0.5831834999999999,0.952626,-2.016142,0.8145843013256098,86.19537256148514,1.1885615,-0.0002768173852972635,0.14150709031560976,-0.9664124224017243,-1.06187823,4.500147759277374,1.526206,12.649148,-7.058935,21.17640193212381,1742.6907436733536,2.9556032500000002,-0.0002786779009820848,1.4038315554874017,1.7439739469060465,25.1701673,5.7156265699999995,0.7356143629226972,jumping
6.348105960000001,23.09754330648738,16.827497,46.241012,-34.851047,568.4599910064967,47565.470987995854,39.50638475,-0.00019658813950906056,-0.14862633533307537,-1.1420068588553418,1.84920954,9.041739215842874,6.9410155,22.122423,-13.806762,84.35509348966478,6861.846939109209,14.061445499999998,-0.0008798990804535608,0.04245276650276515,-0.828660553434819,-1.5128391499999998,5.832228570713595,3.9992895,9.252692,-13.311163,35.96342349381017,2989.051788637849,8.80733275,-9.198558343578063e-05,-0.37432277270058884,-0.8213906494253527,0.09320618,1.7559588030289421,1.2555524999999998,4.020251,-4.05316,3.0612447967456795,240.1422718816606,2.5506525,-0.00012295543003883606,0.2535410699400918,-0.3356009695819733,-0.24953941000000004,0.8779417042239875,0.684085,1.265538,-2.11182,0.82534373679871,69.4545324624045,1.40126375,-0.00083169873182532,-0.3464516942951857,-0.8478360933316318,0.01844174999999999,5.416413584036992,4.479919499999999,12.649148,-7.177109,29.044500850350108,2269.3933749633234,8.975977499999999,-0.00026203561200673786,0.4409907280914355,-0.8035943869739466,33.41657299,6.75786924,1.5142638361952705,jumping
6.93379506,21.229315090876938,18.8273285,44.736705,-27.075578,494.2544949695382,42442.432667326175,35.656471249999996,-0.0011582783280336204,-0.028440849785757373,-1.2514082696196653,-0.15083170999999995,8.542027691869995,7.38888,11.446528,-16.191088,72.25932492252865,5652.070623704658,15.914145999999999,-0.0005280982557258751,-0.3084917528578595,-1.274629404881755,-1.6308762599999997,5.266280905222538,3.5494785,7.482329,-12.473342,30.116134802415978,2560.9302984022625,7.9074124999999995,-0.0002467472440291193,-0.5354254085078658,-0.7935935993932803,-0.20246402,1.7465598364425603,1.114013,4.020251,-3.623183,3.0609582290460797,242.525464204407,2.6592675,-0.0009896383171483357,0.4943578404173912,-0.34993453845571354,-0.26144670000000003,1.1710447025186785,1.012798,2.207276,-2.186429,1.4259866152849798,116.84041164084357,2.07477075,-0.0008937785904635794,-0.08960872208834288,-1.189509966156476,0.28365139,4.62590757191125,4.0975455,8.123412,-7.177109,21.265488766276107,1668.1970619530632,7.931080250000001,-0.0005834618041004263,0.10292878385774272,-1.256568175364805,30.948478769999998,6.459380790000001,2.2001338261339423,jumping
4.681370499999999,19.115006869129033,14.3019135,39.048531,-32.370804,383.64488248905184,31716.804778550162,29.206006000000002,-0.0008068105742012584,-0.18062434857881282,-0.9175871172844912,-1.5201923700000004,7.842632285994847,6.6038820000000005,11.446528,-16.191088,63.20279720340167,5119.896177863155,13.45548825,-0.00034435716064903053,-0.11973740689032991,-1.0182968652858333,-2.33206606,6.883769492636107,3.7182700000000004,9.337087,-24.607156,52.350951711674,4518.47107443236,8.02457825,-0.0005062978518830285,-1.2309241260351202,1.6771114015591273,-0.22147841000000004,2.1714909835543312,1.1819074999999999,5.145069,-4.179712,4.71727204683731,372.4312738820418,2.70504325,-0.0002969740907499642,0.6852327701686758,-0.018468053982885202,-0.31360411999999993,1.295556960778312,1.1779834999999999,2.207276,-2.417483,1.7600307043159,145.27902689759497,2.3483822500000002,-0.0005431718791352937,0.14967891212452414,-1.2478038174465877,0.29526815,4.561856751002889,3.465837,8.144598,-8.281504,20.68961492690836,1623.1960418576089,6.94392525,-2.89603858638126e-05,0.04993904485065803,-0.9322741012471956,28.399035489999996,6.6634660199999995,2.063881070431507,jumping
4.166893979999999,16.854734096394722,8.024915,39.048531,-32.370804,298.6042462861294,24685.47437285808,20.10803925,-0.00016029766846449407,-0.440895294263882,-0.36582381151959265,-2.4959298000000003,6.636442845886422,4.499827000000001,8.301146,-15.491083,49.83161547677797,4380.839902452451,8.93953725,-0.00034822152725010774,-0.25584354154168965,-0.8385312035270971,-2.89963855,8.197311350220193,3.8802525,9.337087,-24.607156,74.93185795937039,6511.402306273039,8.64288075,-5.528402084434856e-05,-1.1870516772076847,0.8224326675015923,-0.028852019999999978,2.2852930800098417,1.092387,5.145069,-5.764716,5.171171255983539,404.1937115688039,1.95384175,-0.0003932393305689164,0.21060931750775713,0.3223088314283107,0.26723409000000004,1.6136852676942166,1.1023685,5.43965,-2.417483,2.649354400599749,212.5846578229257,2.2032067499999997,-9.867818284571884e-05,0.8696937880477131,0.8335976167029622,-0.03832048000000001,4.134281261601215,2.517315,8.144598,-8.281504,16.9228271937141,1322.820254124004,4.8059952500000005,-0.0005763236269349466,0.10908728960013057,-0.6058140483553047,26.38599073,6.201563030000001,2.026626311705368,jumping
2.06237727,13.676602951152773,11.5713265,22.262783,-24.468142,189.43237360445852,15132.317385668957,23.209166250000003,-0.00017479439035978078,-0.34217510253242717,-1.1740471301978956,-3.6306347500000005,9.58188449601077,7.814824,13.549386,-20.5219,104.07589407785021,9163.535080699243,15.350348750000002,-0.000320564532912,0.005651856174217204,-0.9618053970444973,-2.9840386999999997,7.189186371095218,4.380716,7.633014,-24.134899,60.07204363465549,5395.379103233796,9.40352575,-0.0006374673223898979,-1.0408419008979162,0.6204059268442319,0.17382446000000001,2.123229320247275,1.09216,4.258192,-5.764716,4.49323666178842,353.51351531986677,2.03957075,-0.00045823539673756606,-0.2741634309744276,0.3446937528253011,0.70302611,1.815157106888964,1.0440070000000001,5.43965,-2.99544,3.7560930808043502,332.15581991400313,2.0162394999999997,-0.0001321882031130207,0.5087475839179336,-0.06382474511429104,0.31652497,4.043454430777564,2.1629325,9.646874,-6.367161,16.28621655307047,1280.5523253608328,5.72117025,-0.00047996930205749144,0.6602570203598178,-0.5559195614087113,26.400197239999997,6.32047354,2.455522932936204,jumping
2.2713581499999997,12.074081246997146,10.517354000000001,24.232164,-19.765631,149.4846714250686,12087.867904314768,18.615329250000002,-9.211979968809006e-05,-0.0018909545060486316,-0.9884227469185172,-4.77040641,9.963816019494134,8.058583500000001,13.549386,-21.13706,121.04163069019366,11236.371779005509,15.916502750000001,-0.0003114256809335801,0.09669841065656057,-1.013030510044702,-2.5423608900000003,6.486263649838874,3.02051,5.951387,-20.138528,48.114498868870484,4267.125289019364,8.576779,-0.0007993951103298745,-0.9657803303805362,-0.027564990563695435,0.2501172,1.956711774398823,1.2401245,4.258192,-3.71547,3.85299237212612,306.0486650155822,2.6024002499999996,-0.0003534047773787476,0.20165047438081365,-0.5054317087469444,0.2735018,1.705305575641788,1.000885,4.663276,-2.99544,2.9537896698550608,236.6777729013245,1.859302,-2.8338719655366975e-05,0.17223767956716377,-0.11703845675192959,0.37615514999999994,3.6010933546835098,1.5852745000000001,9.646874,-4.694072,12.979687312525789,1025.5255709504313,4.73458825,-0.000919104244576737,0.9238750410804519,-0.13656732569492824,24.473937810000006,5.85114831,2.149292444603989,jumping
5.790542800000001,11.167458867363429,7.145495,24.232164,-21.320964,156.99540209734334,14899.2651541868,13.89564725,-0.000540322620823468,-0.6169700868064482,-0.36929781332012457,-4.690079470000001,6.914244248038145,4.5909565,5.349694,-21.13706,69.32555122122878,7136.5803838485,9.605275500000001,-0.00047826315486199404,-0.4787558179865171,-0.6431802234682871,-1.49638654,7.202682812858543,3.955146,10.964546,-23.752875,53.59902598271454,4369.553036495892,7.62695375,-4.059794547063431e-05,-1.2563707676305729,1.217713182422412,0.054376819999999985,2.1027677970913317,1.2114005,6.088003,-3.930033,4.380372922952801,342.6860215636634,2.3363365,-0.0004918115017875397,0.7047610597459529,0.4400719892139713,-0.45911083999999996,1.4551354781760848,0.83584,2.010676,-5.199914,2.3070278306537806,196.78505094576778,1.7640805,-0.0001720999644944043,-0.7380264234963481,1.0582914467619924,-0.25210942999999997,2.7137316252407984,1.1544079999999999,5.845099,-5.317008,7.354255105188671,581.473146793637,3.62986375,-0.001637251101310882,0.5768866654093717,-0.4612264667960515,22.364399369999997,5.0612715900000005,0.7799685754273941,jumping
6.32850048,12.884141625349747,5.005902,19.737948,-31.797991,204.3910126932095,19109.073252379054,13.435212,-0.0005967554050454304,-1.3948796135790922,1.029293013768533,-2.26247269,6.936947225664479,3.78441,6.804022,-21.40955,52.75880711653339,4522.420803881606,8.91275225,-0.000262893922982699,-0.9614264697618056,0.15034156834841061,-2.5327645599999995,9.263721634118246,3.6441244999999998,10.964546,-37.832277,91.37326944567816,7640.326353139144,8.402487749999999,-0.00018020920291452822,-1.7730411213277484,3.8423330883753914,0.07870556,3.095702893022182,1.5420425,8.62317,-7.347267,9.493737203022162,742.4759036005777,3.0183317499999998,-0.0004167469653748903,0.5789789810954122,0.8513610645889709,-0.37995254999999994,1.7825981074583663,0.9194295000000001,2.355601,-5.238529,3.290243392838511,268.45485751236913,2.107804,-0.00034480845713644957,-0.899701978362592,0.7955745822665059,0.30456640999999995,4.090747140173965,2.6838509999999998,9.349024,-7.066617,16.659630741293356,1315.3784052125197,5.377060999999999,-0.0013305007647936215,0.29129194835641165,-0.5641989763548465,24.431761130000005,6.872528560000002,1.4045326095272752,jumping
3.37637952,15.255929456115608,5.685181499999999,19.540726,-31.797991,241.81588839735147,19931.328696965316,16.03000275,-0.0014621722194296156,-1.156302597086995,-0.04969512246553354,-2.5968992600000003,8.609006203321384,3.790246,6.804022,-23.339426,80.11772369732634,6836.383823522193,11.844040750000001,-0.0015617639779745974,-1.028917974225756,-0.20019668631844212,-3.77496167,9.670896857596414,2.438644,10.92579,-37.832277,106.84131917993466,9474.897850715344,5.131111000000001,-0.000702287207636169,-1.7933501100607805,2.948484175581097,-0.05796302000000002,3.2350603998221885,1.815804,8.62317,-7.347267,10.36431934428024,809.9806622589014,3.39039975,-2.03463701296572e-05,0.46174287826608235,0.4232910074012053,0.18899445,1.7929455761828197,1.2736195000000001,2.712527,-5.238529,3.2182262028928106,254.53431216948354,2.45840825,-0.0007378055164484144,-0.9843489417532011,0.6448681617652339,0.8925773600000002,4.814066061324294,4.035567,9.349024,-7.066617,23.74017406595102,1917.2382509851227,7.949024,-0.0003080332949644415,0.09641515135861801,-1.1600959092555059,26.14554403,7.972715650000002,2.464660547421479,jumping
2.2550926000000002,15.319486400241063,5.561506,23.35424,-31.561114,237.42523956607386,18951.907305554916,19.57360875,-0.0003930452519838143,-0.9376078670876888,-0.3956514130922457,-4.48356609,9.387896617072128,5.713388,6.050148,-23.70095,107.35364174730387,9983.583700565252,14.578294,-0.001300121275588311,-0.7203354378636831,-0.8414911951674249,-2.94594243,8.70183917749394,2.7099374999999997,9.076119,-29.001863,83.643361821133,7252.226581647606,5.0861072499999995,-0.0011455039665261139,-1.4351162873558287,1.4307726627118669,-0.15388511000000002,2.771061415359901,1.7268450000000002,5.612938,-5.67623,7.625674181099169,598.9584298828966,3.5032945,-0.0007879695303016316,0.27251434578663314,-0.4916403969795562,-0.01754137,1.3161983213511286,0.942312,2.712527,-2.828572,1.71536194057773,134.19666389557477,1.903247,-0.000686361114698053,0.16781382866006408,-0.6690215048482555,0.28157455,4.367762138865556,3.0628765,9.03161,-5.952811,18.965856867898047,1494.9973981064259,6.46319375,-0.0014211891666410402,0.5166789947247102,-0.860116116059976,26.816293080000005,6.904098670000001,2.1982109869159734,jumping
2.9948994099999995,13.390455865570553,6.585177,23.35424,-30.374339,186.4806876809333,15337.226383447663,14.6495965,-0.001175183187541907,-0.8568355118456937,-0.12979147252449863,-5.730912229999999,9.128516348358058,7.032593,5.327099,-23.70095,115.3398676029815,11586.199545446565,16.1620955,-0.0006276524946301013,-0.5110303047245648,-1.0970340906607217,-2.30307836,7.7171371830188775,2.9444939999999997,9.076119,-26.091112,64.26283417081748,5480.631690978434,6.42760775,-0.0013999415226450182,-1.2229740581284694,1.3238309266993538,0.4104985500000001,2.631080767119076,2.0998065,5.612938,-5.67623,7.021869202624971,561.944609981854,3.710863,-0.0004625261959083458,0.10201278296444374,-0.5888051580354605,-0.23356146000000003,1.0285861855174516,0.6676905,1.983734,-2.856302,1.1019606012243,91.45787624921694,1.34706625,-0.0019103719530394103,0.0021684991592821187,-0.14858019353881335,-0.22440997,3.775440427717169,2.131081,9.03161,-5.538736,14.161770753644193,1111.6808696748903,5.197433999999999,-0.0008395235701694235,0.7913103964525943,-0.37410091700312265,25.32124736,6.144941759999999,0.5366167032380947,jumping
3.8978860399999995,11.77274815432589,4.969614,25.451112,-25.911397,152.4051386949587,13118.09182320681,9.648408,-0.0008362203483381003,-0.6765644150440971,0.3877342507070054,-5.795931229999999,7.817046354958601,6.490456,4.515165,-21.906047,94.08797040130511,9994.165000501764,13.66771175,-0.0009851088612708712,-0.4153209315152355,-1.0800978564588728,-1.52418318,6.8114921606055265,3.1150055,9.39784,-23.269994,48.25559556564557,3979.3308906301377,5.94147275,-0.0012866405771169054,-1.5120698259573513,2.27724441736025,0.12536509,2.3289571898741435,1.5811035,5.221324,-4.401957,5.38551758213451,423.78551581901337,3.090444,-0.0008601139125799171,0.5148705439815948,-0.5011418351726755,-0.07791712999999999,0.9676620043687897,0.6647385,1.983734,-2.856302,0.93307713629947,73.41159306804545,1.2679887500000002,-0.00023190709391732192,-0.37479175581298585,0.13718009372750695,-0.29963936,3.4447362011476237,1.234474,8.376452,-5.189276,11.8373291666032,931.9128347521257,4.255361499999999,-0.0002108949348850846,1.0068788814183791,-0.17853541666608264,21.930272150000004,5.55503302,0.9459107730090681,jumping
4.16830809,12.48926395966342,3.8082020000000005,28.321011,-28.670266,171.79668944476558,14779.269682068865,7.5260982499999995,-0.00015063330974510387,-0.3581070512976812,0.5003737031731608,-5.0010756800000005,6.19966552442284,4.3662755,4.208258,-18.124256,63.06225204565739,6888.559037746482,11.1256305,-0.0008023052529287694,-0.4760837583084065,-1.0043142855175615,-2.35075586,7.459037509619726,2.856507,9.39784,-29.424589,60.60692127753924,5168.667084023049,5.55862475,-0.0003631037014960538,-1.8896049479655141,3.744825807648323,-0.27667058,2.1443056502930333,1.084917,5.417466,-4.827974,4.628612864497381,367.799600922179,2.20546775,-0.0004494107362692126,0.6517108201762765,0.670379457128349,0.05497185000000001,0.8992409597483979,0.6143475,2.214823,-1.890188,0.8035698649447499,63.32715178311433,1.2547035,-0.0011761627346760343,0.11009083722798144,-0.5972357641908146,-0.19475583999999999,3.387443762131524,1.195759,8.66259,-4.106397,11.39795732640184,893.5086620159208,3.336101,-0.00021898063076728597,1.2939592475165653,0.5472421303954049,20.47596827,5.06930211,1.9921189818603215,jumping
3.4851315799999996,12.46176304407453,7.6000935,28.321011,-28.670266,165.88872491490835,13909.213313720007,14.326789999999999,-4.965153442658699e-07,-0.041081558722343404,-0.06306672839572913,-5.10477007,6.37188422624157,3.7385460000000004,3.537433,-19.411289,66.25357697426767,7214.4022848808,11.423185,-0.0005313988747186652,-0.636121985012241,-0.8772389977850721,-2.71351184,7.737857388385405,2.439916,12.646772,-29.424589,66.63883909918087,5781.623864818328,4.47487525,-0.0001424342590513799,-1.8032727824378871,3.547378053683789,0.021876749999999997,1.9774008548949298,0.8201229999999999,5.417466,-5.195793,3.8714915917203707,302.78243915430534,1.621844,-0.0005879415683982985,-0.14788623790584024,1.2769370272853626,-0.06026152999999998,0.9877010568412089,0.6994345,2.214823,-2.117512,0.96942929590633,76.02999893253147,1.4046254999999999,-0.00023226440851119065,0.055030544490990936,-0.6159584251260437,-0.27234900999999995,3.294231838753659,1.678637,8.66259,-4.390622,10.817617756631707,850.9813156852032,3.83178125,-0.0002067021216660679,1.0045565064395092,0.09998984470223427,20.42471137,4.90221911,0.9341224324967965,jumping
4.33612666,12.08078377917214,10.222493,29.863925,-18.202966,163.2878777634804,14238.517504224299,20.383185499999996,-0.0007435328793757657,0.31848032538627374,-0.8687818601467616,-4.39650541,7.7708921570707705,4.658069,8.237999,-20.180875,79.11215708781505,7695.975020029664,12.457965999999999,-0.0008298568548807197,-0.6161632470717086,-0.9248810923796369,-1.6474202100000002,6.656241152621961,2.280552,12.646772,-26.709714,46.57648416735597,3852.0361432060786,4.3145757499999995,-0.00031819449258433985,-1.738493236042917,3.7664999744564582,0.10783766,1.7875444775172755,0.730656,3.202335,-5.37695,3.1749910674257595,249.00211995002564,1.4460845,-0.0002775506865179982,-1.278855521458261,1.818585648356576,0.03488195000000001,1.0191132912960614,0.470792,2.783876,-2.726157,1.0294227319271299,80.52417873204305,1.2618755,-3.4854086966477336e-05,-0.4131360030076316,0.47645370169655177,-0.32106629999999997,3.2977490345966873,2.4600074999999997,7.29031,-4.390622,10.86948077722724,857.8308196940723,4.67398125,-0.0007996569812783343,0.6820068596768851,-0.6083068726063767,20.944332460000002,4.883057529999999,1.1729012028800032,jumping
5.587795819999999,12.54519805193376,9.9728225,29.863925,-17.756896,187.03163634662963,17078.53873252098,19.68912925,-0.001145586809190313,0.2582525843906015,-1.0405816287288352,-4.0599256100000005,8.343240436567848,5.3655555,8.237999,-20.971561,85.39656033129094,7960.313396309099,13.5060655,-4.671063063050831e-05,-0.5866120415872236,-0.9459732433125776,-1.44392653,5.874666993487583,2.6153665,7.095965,-20.557214,36.25151898556656,2996.926503759155,5.64507925,-0.0005468419060765645,-1.4925408423823723,2.2417130312673317,0.053496690000000006,1.6604817101135958,0.7335179999999999,2.882278,-5.37695,2.7324894103665094,213.73300881961663,1.56385425,-0.00032396421031022685,-1.1922120579643047,1.5216379597822822,0.28905053,1.0031069986170538,0.581534,2.783876,-2.726157,1.07971162306105,91.1684048056297,1.29310225,-0.00132219893812447,-0.3289157916832551,0.5096121910669669,0.05497564999999998,3.3149928761362877,2.2078480000000003,7.29031,-4.208117,10.882308313238912,851.8222599263424,4.53352075,-0.0014454551847089107,0.6767029330819226,-0.6025525866662336,22.083966540000002,4.79237635,2.0398836008525074,jumping
6.587295709999999,13.387425960098941,8.9340385,27.700614,-26.403106,220.82340686974413,20647.758573380408,21.364284499999997,-0.0002460888148422196,-0.22188946000273324,-0.6175981332913834,-3.7384187100000004,8.474123627559903,5.3180455,8.237999,-21.048624,85.0684379938954,7745.137245049646,13.45473975,-0.0009447450967531702,-0.5999989379544106,-0.8816960103970279,-1.5982926899999998,6.039043863876555,2.5524435,8.469788,-22.794446,38.65988980483425,3220.1666892266057,5.1351135,-0.00018531998189201228,-1.5402344832681856,2.7405089910800307,-0.03736651,1.6670472623717247,0.6193685,4.026233,-5.594936,2.75265236530083,215.3719085994855,1.23680025,-0.0006477662129179349,-0.896965689991645,2.1147344657200406,-0.014261610000000001,1.0144250008041413,0.7025334999999999,2.129598,-2.181122,1.0189708949537102,79.7250744692935,1.5706167500000001,-0.00015029598791642921,0.13585193453249045,-0.7190022115345163,0.40920113999999996,3.8528946856017363,2.2574620000000003,8.374466,-4.933725,14.86379505673202,1178.1646678251525,6.14339975,-0.001394565936174536,0.5729527053238702,-0.938519708608613,23.13951610999999,5.21466818,1.8401189672469278,jumping
4.19139123,13.91883571094362,9.676765,27.700614,-26.403106,209.36440811567786,17855.80855955522,19.3962885,-0.0013874775851968999,-0.374198207147565,-0.586559965707556,-4.27525105,8.580148766185216,6.75524,7.447164,-22.403293,91.1605348618971,8579.586676445388,14.60249825,-0.0013224443143528873,-0.5154142078855235,-0.9718183504764188,-2.32290233,6.624086426579804,2.1957825,8.469788,-24.038383,48.83561101165024,4273.153473423566,3.87060075,-0.001387525198288852,-1.7597759915163345,2.8288841298896594,-0.18338840999999997,2.0633282100266643,0.6323305000000001,4.506444,-5.594936,4.24838137819125,334.6309748849236,1.27662275,-0.0003115583777902137,-0.3643528001552705,0.7684077963077067,-0.11104327000000001,0.8931320916976387,0.5538700000000001,2.589553,-2.181122,0.80203869170029,63.62999631904533,1.12324175,-0.00012326481593720858,0.004251117052090699,0.301369808300207,0.60543915,4.123997480836149,2.9057355,8.374466,-4.933725,17.203838234076187,1373.6807965045268,7.003802,-0.0006571396754098854,0.4431582182854522,-1.1771154787135483,23.61562703,5.66497811,1.995691629367716,jumping
2.35080683,13.140291840704768,8.122328999999999,19.771317,-24.548348,176.46688971427795,14218.535514276162,20.09850025,-7.665314428315061e-05,-0.6373164872901587,-0.8587473770405669,-5.4923734,8.115045265013169,5.4768859999999995,5.622184,-22.403293,95.36158562170807,9815.87272755837,13.51317325,-0.0008574867035834755,-0.44500238460068126,-1.1303874043903248,-2.8334464,8.057594659174288,3.2190785,7.664887,-24.421455,72.30400187631145,6281.217502901496,6.584615750000001,-0.0005671081980442943,-1.3081447298987554,0.8703801053246822,-0.03889340999999999,2.4331289078258926,1.734455,4.506444,-5.36082,5.862427816618471,459.5723743803376,3.4216925,-0.0009504193754617851,-0.053010494377865786,-0.5983099879484475,0.18358251000000003,0.9145283960644037,0.4499335,3.127143,-1.73405,0.8617011033139501,69.97210821737063,0.89004275,-8.229244829243717e-05,0.7661282200897944,0.9922477262876526,0.23531001999999998,3.6693771142089138,2.7033085000000003,8.264515,-5.647919,13.385055927729738,1057.4721345597864,5.73959375,-0.001397815758216736,0.40418292183434373,-0.8584045925750292,24.50095949,5.599903899999999,2.6629694948723466,jumping
5.18009176,10.71867353801609,5.4412725,20.405631,-24.548348,140.57441343244062,13088.431555178062,12.81799475,-0.0006285357480198167,-1.1115218987509503,0.5421405950665705,-5.804776319999998,7.165971389470879,4.933028,2.842366,-19.519028,84.5330626204008,9243.975404176454,12.8159745,-0.0010619705985709864,-0.4862477733358991,-1.221700193573221,-1.24565076,7.581075383522875,3.7336075,8.143578,-24.421455,58.44962274683853,4733.121343473711,7.367445249999999,-0.0019890905124581196,-1.39546719276621,1.4436894297081286,0.31846981,2.284806763577075,1.435978,4.499506,-4.832607,5.269561547300109,419.8254396988937,2.76069025,-0.0002239272320956689,-0.2206261646678591,-0.5335346975103468,0.18205263000000002,0.8845708896831166,0.4756455,3.127143,-1.493985,0.80778416237595,65.73089441989198,1.1708845,-0.0003058086192997878,0.7942325847728525,0.6159602078010633,-0.11341593999999999,3.0564436348595914,1.75594,6.520168,-5.647919,9.261292391589059,724.7559537972681,3.79311325,-0.00022487405799116988,0.401586182398608,-0.4872420367494765,22.513809580000007,4.942528220000001,1.3256608656634243,jumping
6.570018550000003,9.71534603938082,6.684836,29.48175,-15.755194,136.60921292560752,14068.747995256663,13.30087575,-0.0009701981623434641,0.10812996032336591,-0.22331989950207376,-6.147121749999999,5.71075047040054,4.6895675,2.842366,-17.506702,70.07365003515127,8430.382252728275,9.554510250000002,-0.00089483361446988,-0.21101782189992693,-1.1622371362790602,-0.25868600999999997,4.642581401138559,2.631826,8.143578,-15.23221,21.404944897305406,1687.02010921797,5.1153235,-0.0016286174963773246,-0.9717905422981596,1.215319554130474,0.16503031,1.7586123537177147,0.9363090000000001,4.402703,-4.137821,3.08902523976077,245.44579861200828,1.96896425,-0.0017941077781952063,-0.2726128897936092,0.3160658221074475,-0.086793,0.8353524995300069,0.5120035000000001,1.883654,-1.919969,0.6983686853353201,55.192301833080634,0.94655525,-0.00032260957250764254,0.26863475848534,-0.26248815758857313,-0.026411270000000032,2.341241607256558,1.549752,5.521294,-3.360565,5.427295696096789,424.36250890870303,3.09130275,-0.0008372957776253915,0.6809759284629892,-0.4267507233810601,19.50315927,3.94712058,0.2894126009631046,jumping
5.399744740000001,12.004051424636343,8.002769,29.48175,-15.755194,171.81352135641836,15705.518895791862,17.10687025,-0.000501768752086188,0.4231153835218243,-0.8114140793082596,-5.813087240000001,5.210174301095303,4.1395745,1.222838,-17.962498,60.666440345166805,7384.961810861099,8.425382249999998,-0.0008289191813087845,-0.5195722310430831,-0.7144568474337212,-1.1379041600000002,4.536366830079548,2.4503905,6.508188,-17.093403,21.667663654220817,1794.1440104711096,5.52746375,-8.794466856192301e-05,-1.060286975931931,1.69938740503963,0.15667858999999995,1.7428684334479159,1.0880505,5.073953,-3.680038,3.03176265311049,239.83051177834736,2.21041525,-0.001102012668866408,0.3677790683828927,0.5779869742337715,-0.25050337,0.8689473550344848,0.49445550000000005,1.883654,-2.348789,0.8102707491445699,68.20858795563734,0.9498635,-5.881956591062644e-05,0.026556230132660005,0.10686706087711428,-0.43390343000000003,2.4188539551620964,1.6330060000000002,5.912621,-3.325983,5.980618098405051,481.9542567835257,3.418135,-0.00013049053241357756,0.8081288946824514,-0.2867114030540945,19.3415626,4.15126003,0.8439673644161515,jumping
4.46693086,12.95460654154433,8.3835965,30.938472,-14.727183,186.09708364778126,16108.917608028129,17.357401,-0.000670095432947193,0.6051853337383255,-0.7261229150566626,-4.985007670000001,6.632720065476208,3.4290955,2.74181,-20.789601,68.40334718225984,7292.216441952913,8.32456425,-0.0008587926822330361,-0.9784118644886137,-0.2057696044485513,-2.35693287,4.621102914617303,3.1828665000000003,6.508188,-17.093403,26.69617877969613,2520.046019009849,6.01026925,-0.00013748739579044062,-0.5418460904644108,0.7064653649783534,-0.22818835,1.7524554734810998,1.2882925,5.073953,-3.348052,3.0924591077442507,246.3726581041565,2.50741775,-0.0009480523581324781,0.8742100038183558,0.8086711080613505,-0.04539239999999999,1.206469000690474,0.8696455000000001,2.152907,-2.558368,1.44307224510856,112.95058124595336,1.6726272500000001,-0.0003061647159841862,-0.2591303897389384,-0.5429992137621338,-0.35085223,2.6546917714200204,1.6200305,5.912621,-3.803159,7.10001180452869,564.5840938844306,3.198534,-0.0005168805131733801,0.8704026237221412,-0.2716356286595323,20.061789399999995,4.605253,1.5594436661424755,jumping
4.49722052,12.760856861733803,8.147244,30.938472,-15.801581,181.43606557271113,15757.14974412183,17.78603775,-0.0002898684381593721,0.5238948457217695,-0.782646793471375,-4.474866120000001,8.908953187449447,4.772467000000001,8.424447,-25.925313,98.60017921912788,9269.001297139703,12.0265615,-0.0003025328968711229,-0.740621813772994,-0.3979262099589467,-2.1529963,3.9935873316311237,2.9892355,5.251981,-10.033501,20.42464544542464,1958.791026534519,5.919625750000001,-0.00045328228574358553,-0.021991250533665574,-0.8227984423859613,-0.19967432999999996,1.705261305755274,1.458631,3.810661,-3.179651,2.91870679775807,231.48533383804127,2.9305660000000002,-0.0006873376339698275,0.4000064809410957,-0.6950884280711449,0.22119214000000004,1.4157454022748457,1.0362345,2.894578,-2.721106,2.0332176564195197,162.7435003960038,1.987209,-0.0003725763133223248,-0.45587082237590804,-0.7237946362729604,-0.03173711,2.884909086784857,1.7510430000000001,6.927941,-3.803159,8.24048067877485,643.8699695963242,4.183458,-3.1506721104241795e-05,0.78442624477588,-0.4464376213823007,21.467704979999997,5.0415333,2.705113851414963,jumping
4.85814344,13.509341256288732,9.925686500000001,35.129522,-15.801581,204.27883585069114,17817.476388220828,18.93394525,-0.0006844239015203747,0.46285752986974577,-0.8453536937041108,-3.6637105899999995,9.27894186594223,5.442918,8.424447,-25.925313,98.66054981729825,8757.686192459405,13.361777499999999,-0.00040632446925806877,-0.7658074958585944,-0.49570865595895564,-1.2028020100000003,3.8770033638890826,3.0437785,5.251981,-10.595689,16.32757620803123,1397.2055725538623,6.015357000000001,-0.000500803237733522,-0.3400164678227644,-0.5849422264412012,0.29998760999999996,1.5892934473831473,0.9100455,3.810661,-3.271291,2.59058769142957,209.80591115918114,1.8970485,-0.0006289414012357749,-0.07902595424057728,-0.30085665080452406,0.25814047,1.1504846204150248,0.7571365,2.894578,-2.721106,1.3770152154452102,112.94428078227656,1.604019,-0.0003891895114358316,-0.3484978024455232,-0.062303847858816486,-0.05306361,3.3317999962463127,1.821715,7.959282,-4.24862,10.99269804954329,859.3378958165956,4.786931999999999,-0.0005158876940960911,0.8598115097842862,-0.39663410825955836,22.271203480000004,5.01743557,1.336304838082976,jumping
5.667947740000001,15.340559271508848,14.359299499999999,35.129522,-14.490756,265.1050627584207,23230.669049449018,26.56684675,-0.0005776519919534153,0.3481226120689118,-1.1273092798716369,-3.21022034,7.8956191539611575,3.841422,6.091597,-21.439477,72.02290843750407,6432.899542657526,12.17025025,-0.0002765655952152586,-0.8506029997917984,-0.6168807431522088,-1.2724478499999998,3.2641488087665746,2.289231,5.04174,-10.595689,12.16724430228415,1079.2732270038389,4.54707475,-0.0002564792494371834,-0.38013630447480307,-0.23742379216410425,0.09756315,1.229405018581493,0.7766215,2.454189,-3.271291,1.50584090095415,118.46877097343537,1.7680475,-0.0002810818580640413,-0.31814842097573814,-0.03509099658663262,0.059939380000000035,0.9234075622625101,0.6869165,1.94809,-1.706402,0.84774744005794,66.56105836859442,1.47673425,-0.00018203364374121047,-0.16323633321232853,-1.059113851413812,-0.004573419999999997,3.262843993298333,2.0105265,7.959282,-4.24862,10.539710331527479,823.6160364589373,4.4110745,-0.0004163201495699413,0.8055105170591235,-0.26962238073087397,22.613542910000007,4.39070225,1.0681822591200432,jumping
5.851018890000001,13.561501185272467,10.330606,33.380558,-14.490756,216.30959330530195,19576.805235523723,22.7491055,-0.00037621168798170524,0.37485853288532284,-1.0108307152125455,-4.31518932,7.7297170559581145,5.251008000000001,4.444536,-22.420352,77.77189937496017,7531.330996341008,12.48969,-0.00020296057708661696,-0.6961453952373005,-0.7361090802306833,-1.2235058799999998,4.454439872591064,2.363975,6.39207,-19.797953,21.140580871138386,1768.793089333058,4.71235025,-0.00012032388110588342,-1.8118543068752255,5.157519137918143,0.029632270000000006,1.6051704874457369,1.1724445000000001,4.142874,-3.843866,2.55168464225447,199.46345878619826,2.2185615,-0.0002751876753066515,0.008919307509514503,0.02242830941044227,0.04250668999999999,0.8586293549060255,0.6651425,1.604931,-1.706402,0.73167874411003,57.31775932401516,1.28858325,-0.0001879341472353249,-0.21854165057314584,-0.9144616996855954,-0.022384260000000003,2.7696697807427566,1.7890869999999999,6.880691,-3.974072,7.59486104251178,593.5649363006245,3.6404325,-0.0004918586327409857,0.6932255473356808,-0.36838105949481603,21.35350755,4.21051674,1.5291100774654982,jumping
6.13483056,12.016557618670957,8.6153105,30.971243,-11.505037,180.5898264327205,17050.48920855543,18.18942375,-0.00026100256899029827,0.49553621239451023,-0.9369484727315873,-5.1904645700000005,6.209116061588077,3.9543979999999994,4.128651,-22.420352,65.1085134960336,7194.388762389382,7.729866999999999,-0.0006081892191694074,-0.6657357566774705,0.12550616248965296,-0.9444018300000002,5.435906117484534,2.623222,8.174852,-19.797953,30.145479381432075,2425.242988424004,5.514818999999999,-0.00024674842331129436,-1.402965428405907,2.2869578939972754,0.16811197999999997,1.8202472800351976,1.1874175,4.142874,-4.04809,3.3084287966902997,260.9117098662607,2.3533869999999997,-0.0006043240124395417,-0.25639055158378843,-0.2222771803735326,-0.06770060000000001,0.8214528522195883,0.5000009999999999,1.604931,-2.115278,0.67262031177586,53.23535437179132,0.97747275,-0.0011449122786921584,-0.2396872624813586,-0.25189464438890985,0.04316421999999998,2.3168106308901133,1.360262,4.824036,-3.458933,5.3157985342996,415.4827849478117,2.9199795,-0.0003272531637184087,0.5757044638290366,-0.7549575154169972,20.35311732,3.9946517,0.4729122129025877,jumping
7.312795719999998,14.557614183127995,13.7245365,35.975723,-17.943793,263.28187064021165,24762.065207734107,26.918234,-0.000693018739067752,0.11579672416831334,-1.2398642606543127,-4.872261710000001,4.687325553257363,3.569605,3.449745,-15.4224,45.49024480452937,5409.881593092771,7.076399749999999,-0.0003012541845678338,-0.17986834025209503,-0.7604186438609428,0.09609127,5.263271841852366,2.4108859999999996,12.792519,-14.88565,27.434243708593854,2147.6510175978538,5.2767455000000005,-0.0006309192625161738,-0.6050806224623816,0.7640893274828606,0.10714265999999999,1.6574158022755705,1.0673834999999998,3.47383,-4.04809,2.7310364198083197,214.35459866086376,2.0397425,-0.0003921183671944776,-0.5853309551336003,0.05605617968969234,0.017792780000000008,1.2248646856697685,0.8224345,2.898939,-2.163164,1.4856071462390201,116.5616190801841,1.6536045,-0.0009221781623232631,0.4991321586732525,-0.22873807256853906,0.22557804000000004,2.099921475235094,1.5267184999999999,4.340956,-2.917145,4.41645895226224,349.02541965282137,3.309963,-0.00011261216951674672,0.40878677401752245,-1.011536676581353,22.86771886,4.05354408,1.2381243652629188,jumping
5.980521240000001,13.141522128787948,8.133252500000001,35.975723,-17.943793,206.73924212490022,18959.331808386876,20.79536225,-0.0008143424455579444,0.44223962451946935,-0.6005994882950887,-6.687255140000001,4.793920092076222,3.1827170000000002,3.449745,-15.4224,67.47123445817641,8766.45613787248,6.712893000000001,-0.00034476253512750083,0.5551885889126803,-0.6356210438122742,-0.23459886000000005,5.1860670889012965,2.392855,12.792519,-11.341633,26.68137555719262,2089.5240782472742,6.1539582500000005,-4.097822244843688e-06,-0.3075382728234357,0.13074345152100442,-0.39189336999999996,1.5499743378356252,0.7569619999999999,2.2708,-4.008193,2.53197665691945,210.09552755808443,1.92470075,-0.000721389987246556,-0.565711702495976,-0.38327388952630015,0.58053859,1.4193995554029326,1.072108,3.915033,-2.163164,2.33157320137845,208.67514780176262,2.3345745,-0.0007486731346669812,0.23968650736319305,-0.7946719344952458,0.7819613099999999,1.7886053886496764,1.2463655,4.256246,-2.505394,3.77858163428051,343.0116784716777,2.5547005,-0.0002110520871022846,0.17280934237373816,-0.83486965315194,22.059681820000005,3.9112272099999994,2.318974084060557,jumping
5.504751490000001,15.236318987872151,5.226243,48.807596,-21.56218,260.1262511038488,22827.553432007095,11.48117,-0.001509120423925096,0.39272021165540255,-0.03708927560223607,-3.3040282200000006,7.456906311505141,6.9560534999999994,10.807576,-16.575507,65.96599969973592,6006.54041107824,11.74670225,-0.00019576552902639664,0.19485681753365522,-1.058562425804515,-0.5541993199999999,3.8335901800136023,1.2757355000000001,11.246762,-9.916035,14.856586417902218,1196.3088573217153,2.484545,-0.0014624398743286803,0.33939183459476147,1.2579661355025822,0.76397094,1.4667126055293251,0.8976459999999999,2.583777,-3.155383,2.71338500571092,257.62254194206366,1.786074,-0.0003213147261118665,-1.0338648358820242,0.30232384813926716,-0.75478054,0.9985084724780013,0.6896545000000001,1.711754,-2.851952,1.55674264147694,166.17789740037625,1.3755555,-0.0002880596552779165,-0.09258777423630749,-0.5898621547380185,-0.6905156000000001,2.767368066263155,1.3860424999999998,6.821664,-4.325037,8.0585545478747,667.5557554346318,2.72607725,-0.000752026007284126,1.2294301668049115,0.8090202409415439,21.12347119,4.7471942600000006,0.5340468801597501,jumping
9.81864347,25.62126150975611,23.686211,56.451983,-26.126277,746.2903105287702,65884.38495638537,46.009147999999996,-0.0007515348610544969,0.2548998188480336,-1.3048676076603016,-0.051199969999999956,6.209441573707837,3.893047,10.807576,-16.575507,38.174214447646335,2985.284999255163,7.476156250000001,-0.0004573568538061763,-0.47444738131691294,0.11476120055151995,0.26070161,5.506594120568033,3.9112275,11.312304,-10.358364,30.087318350044267,2363.4315951075896,6.81266325,-0.0010004510675768075,-0.13213180685122344,-0.6007334792153882,0.05536926000000002,1.776226262632667,1.5309905000000001,3.313472,-3.155383,3.1264956936583004,244.98278815732445,3.04364075,-0.0010263948496186633,-0.07160157517574946,-1.204097383726647,-0.25903946,0.8507804547958626,0.42473000000000005,1.711754,-2.851952,0.78369055027712,66.50506441792008,0.87327575,-0.0004965950224613599,-0.35278084361641493,1.2787946326351802,0.25651978000000003,3.3652970397533553,2.5636780000000003,6.821664,-4.829502,11.27777432164622,888.1018117491743,4.840594749999999,-0.0012514359563773655,0.3032907003457239,-0.9339789740561706,32.285233289999994,5.02174724,1.3977042591819901,jumping
10.940449590000004,28.88202247218465,26.5207215,56.451983,-29.829059,945.5229470942726,83286.062291302,57.52106925,-0.0007811696000820873,0.15564145684517156,-1.4812038329484496,0.004029749999999975,4.873273225452568,2.959383,12.132168,-9.227552,23.511320249498795,1840.4635103577223,5.82037925,-0.0008195025273079339,0.45909339595396736,-0.29746513208005787,0.50626143,6.295542208130543,3.3436520000000005,12.123489,-15.479561,39.493813812915306,3107.214620678889,6.833163999999999,-0.0004671811800079535,-0.3296020993018513,-0.3520373556147174,-0.04025408,1.9686452566803225,1.5064609999999998,3.313472,-4.055765,3.8384288961400794,300.2977332477144,3.69456725,-0.0008877923807489247,0.15004025411098748,-1.138221239495254,-0.08948247000000001,0.8957661277290271,0.465908,2.45944,-1.649708,0.8023800984680899,63.3473319185591,0.9720409999999999,-0.00027673626646696755,0.7838947703801612,0.3786043688883267,0.32412442999999996,3.869428068061711,3.483008,8.24891,-4.829502,14.927805484287571,1180.2142637036,6.73204975,-0.0016723277220151843,0.3060851894584456,-1.1291355072883715,34.895266230000004,5.758737820000001,1.6454599357306263,jumping
7.5184561,26.21396376307631,23.737911500000003,52.717178,-29.986328,736.827359337786,62340.962191183295,49.074362750000006,-0.0015855181723839695,0.1675475221274462,-1.2936569063428984,-1.10523832,6.115835216247984,3.607015,12.132168,-15.300595,38.250957732372456,3085.4433896587943,7.874492249999999,-6.990646021363065e-05,-0.231624661723719,-0.2239188072010121,0.06321144000000004,6.009911629555908,2.851419,12.123489,-15.479561,35.76184310326752,2796.5690541934455,5.7790045,-0.00039980649591523157,-0.404649423461387,-0.09051120634364151,-0.28716528,2.013582524732082,1.6191605,3.27483,-4.055765,4.09643333610484,326.5191559711134,3.26779275,-0.0002703903658172492,0.15007215664934703,-1.1514405630737519,0.02528653,0.9366089457550105,0.543179,2.45944,-1.584042,0.8691033626950698,68.33987560866154,1.10941525,-0.001146393479195596,0.6783405264791261,-0.05884487021014895,0.58144675,3.9476682832994894,3.3623755,8.24891,-4.502597,15.76632434930461,1258.5054084578528,7.12650075,-0.00048778960989086316,0.32276068849899014,-1.322829474603105,32.09611081999999,6.03385222,2.0219198877397413,jumping
5.461238359999999,21.941724215762463,20.3857295,44.265946,-29.986328,506.44999336970693,42010.22935653561,39.81130875,-0.0014194255140982132,0.09912457846931473,-1.2709930565785512,-2.9821472599999996,8.966313418699018,5.2507090000000005,11.491869,-23.951893,88.48403083944417,7614.263341739652,13.162124,-0.0007727838026892589,-0.6769620072999267,-0.46482366173430645,0.21023935999999996,6.012904356934659,2.7874495,13.690793,-15.987282,35.837669206080584,2805.9423108528354,5.1890955000000005,-0.0004522367021195348,-0.6186358593873865,0.41488032041599965,-0.042437600000000006,1.928352411998985,1.5249135,3.427727,-3.553033,3.683158544507441,288.01494226746496,2.9442777500000004,-0.00041434126505450675,-0.04447099391419673,-1.0347218944015915,-0.11935341000000001,0.8837918327478022,0.5274355,2.142108,-2.359313,0.78752236007403,62.813902458626465,1.0376254999999999,-0.0007259650758470905,0.06452151854436959,0.09140569749948524,0.13697906999999998,3.170739636214809,1.6896795,6.630323,-3.594359,9.97181720787505,781.0174149199715,5.03064775,-0.0006733361469654305,0.6362393420224158,-1.0133090861937957,30.792547340000002,5.1101060799999996,1.4387265331015398,jumping
3.90042985,20.419804581123692,18.658163000000002,41.120862,-23.774422,428.0120879547384,34627.730402191155,39.62287775,-1.4165664378482043e-05,0.2009544728746628,-1.369477399334062,-4.09849315,9.21149207769707,6.5406595,11.491869,-23.951893,100.80071653509805,9188.664788686952,14.62008025,-8.871344066980393e-05,-0.3553928859463437,-0.8271396996352998,0.22843826,7.320432247398088,3.5664624999999996,14.070274,-15.987282,53.10502504449018,4164.133884557434,7.187206,-0.0010627831059520198,-0.22856887226787473,-0.33608822747948386,0.05217838000000001,1.9797564700667836,1.3246195,3.427727,-4.355514,3.8829639073029996,303.93561821352495,3.14149525,-0.0007527519972859967,-0.3172238476375495,-0.7799774132245672,-0.16836870999999998,1.079523912200659,0.685738,2.29937,-2.359313,1.18206618074995,94.60142476495861,1.36553325,-0.00036572224070323866,0.16154151551505566,-0.4614850437783149,0.08419863999999999,2.3354553990605647,1.2031500000000002,5.435227,-2.447411,5.40689781276898,425.00157291988967,3.961214,-0.0013236474546340976,0.6523355460942398,-0.9376396233741002,31.4966491,4.59700363,0.6001939840939468,jumping
4.17892642,20.22246107273898,14.8909615,42.941354,-23.774422,422.32187854383295,34363.078734067356,33.90563625,-0.0002983789891580927,0.4757531836097473,-1.0202944947761514,-4.558757470000001,7.221872805669857,5.424587500000001,9.51366,-19.810522,72.41616202334188,7284.643660201879,12.443788,-0.0005053146393571188,-0.29592719886344276,-1.1223381517541664,-0.34093432,6.66025011431022,4.3576715,14.070274,-15.270069,44.031578479871456,3453.982606833742,8.81451575,-0.0006872134929731378,0.0961572117997087,-0.4145081748872004,-0.03801909,1.8069426047500936,1.4205420000000002,2.920936,-4.355514,3.2338366122968707,253.51618742334114,2.9626805000000003,-0.0008892908092591968,-0.3238057535838649,-0.7088056931131899,-0.06844915,1.1086235595331662,0.6967209999999999,2.29937,-2.438528,1.2214410209201898,96.26362037181072,1.3732815,-0.0010837071830939197,-0.12625731799878515,-0.47870249398998155,0.37764879,2.248166332855116,1.7235014999999998,5.440783,-2.509511,5.146327950169851,414.64366119581905,3.7404597500000003,-0.0012538962299525412,0.5634974650586488,-0.8710474946561089,28.659527630000007,4.316773610000001,1.5605773049559066,jumping
6.19275376,21.37383768558064,12.882376500000001,57.649682,-19.624224,490.6227271674459,41327.157098559175,33.39743,-9.063174897868997e-05,0.7968911380092021,-0.5783472408008015,-3.59468729,8.680152045576495,4.425532499999999,10.055348,-25.423429,87.51336585187009,7847.4426572609955,13.506477,-0.00021499798731637024,-0.7107986420415523,-0.4817647913899683,0.3640234,7.213769238507401,4.10426,22.696882,-11.026496,51.65059499591885,4046.2413024716834,8.1566335,-9.970989066252068e-05,1.1217401779241076,1.4505613983380679,-0.09402818000000003,1.694562980145061,1.3393774999999999,2.71825,-3.736007,2.85166955537544,223.69829703424068,2.71180775,-0.0004004324076509612,-0.4074323807185834,-0.7743383041055503,-0.025376360000000014,0.9167951970080563,0.5267120000000001,1.94234,-2.438528,0.83275225857132,65.36098221566391,1.00872375,-0.000347817679211649,-0.3292901518415019,0.22714934633576878,0.14474068000000004,2.67680060903924,1.85724,5.890107,-3.388771,7.114558749994181,557.537727737638,3.9145665000000003,-0.0003651481982314433,0.6430493175437986,-0.7972355925329437,29.349211869999998,4.41323178,1.9288830716235874,jumping
5.73833427,22.498286640160515,10.218752,57.649682,-20.143466,534.0396529196533,44295.58988906538,32.323593,-0.00015933744715118962,0.9135698861393372,-0.4668815756920961,-3.7980493,9.956457825565877,5.7055325,10.055348,-26.766426,112.56492039317973,9922.677385319634,12.933552500000001,-6.11550474715147e-05,-0.7847920628096082,-0.3938100414380217,0.75195738,7.650263830759157,3.8144125000000004,22.696882,-9.887754,58.506711214755995,4616.472918918229,7.551574,-0.0004046841638603847,1.0246546322773253,0.726791210483408,-0.16062324,1.819321822490302,1.5724015,2.78084,-3.736007,3.3026324000796405,260.080062355542,2.92184225,-0.0003701368245541389,-0.2448512942360632,-1.156164550345508,0.09508301,0.8920593646290439,0.5826865,2.117508,-2.02223,0.79685298971281,63.13800307409243,0.989148,-0.000844779967140656,0.11982628267984599,-0.20927573175654857,-0.15756062,2.6665344815974485,1.4693519999999998,5.890107,-3.388771,7.064127429107481,553.9317033598854,3.8706395000000002,-0.0005020635979480564,0.8107633161343826,-0.5916977540147461,31.326038310000005,4.64687405,2.547652172312917,jumping
4.586218989999999,22.213021665562717,12.90774,52.191202,-28.822297,509.51755282384767,41469.23393281309,33.5598615,-0.000648439436579153,0.6236931234776794,-0.7546990936146658,-4.207441330000001,8.384084791416987,5.459154,9.544784,-26.766426,87.29251155716506,8204.184240722165,11.63391275,-0.00026200306983735575,-0.8474806050851984,0.16682637138537082,-0.42623076,6.448957497206183,3.5444655000000003,15.445893,-13.59712,41.35483493353428,3255.355355184517,7.074529000000001,-0.0013737144434792675,0.15791441086674352,-0.08969935774953575,0.27147057,2.1885937930135686,1.8008475000000002,4.337678,-4.042009,4.815739633285469,382.24364493513264,3.5796905,-0.0006476126054588202,-0.035891835099395954,-1.0897743908649191,0.13465385,0.9138918553580643,0.5333405,2.117508,-2.02223,0.8449779993767299,67.48103903256863,1.07460875,-0.00034847761828899463,-0.149052297964707,-0.23696177532012808,-0.4049525600000001,2.784176180884597,1.9310984999999998,5.305035,-4.19208,7.83810721199364,625.47301299523,4.47442675,-0.0006056243549461585,0.5737808188963751,-0.9350579519691915,29.692505939999997,5.140862039999999,1.2976807573910256,jumping
4.5915715299999995,22.99667727154097,15.468114,44.59051,-38.460455,544.6412229912016,44241.43280818168,33.14480375,-0.0007955020018843951,0.1277968406241886,-0.9023374241844921,-2.40061067,7.352874949633592,4.1075525,10.098593,-17.898453,59.28705391361756,5086.2029580473245,9.299079500000001,-0.0005906940987985038,-0.558979029912433,-0.5932900870540405,-0.12167635,5.697518409971163,4.0141785,11.379341,-13.59712,32.15190400579003,2515.3327256379293,7.542707500000001,-0.0009186252738995699,-0.33954478803775956,-0.1975082606430245,0.21436208999999998,2.0956828194207477,1.449217,4.337678,-4.042009,4.39391872044831,347.1947363754238,2.73221325,-0.000751451619023541,-0.030311052298305108,-0.6366879258445186,-0.08099205999999998,0.8519084102846581,0.4715665,1.847129,-2.519468,0.72505017390164,57.191641976126796,0.939208,-0.00047880870014710354,-0.19282793756684588,0.31735299704599385,-0.6916572000000001,3.9067810861124586,2.25503,7.989788,-5.65435,15.58869875256982,1255.2628611889147,6.29048225,-0.00010315905394097376,0.691382650105316,-0.7565473139186825,29.377084850000003,5.8722720100000005,1.2298090670466775,jumping
5.37146328,22.575739499305882,17.7326545,44.256818,-38.460455,533.4199915695027,43973.292592366604,35.00999875,-0.0007179320487572059,-0.13602821501546333,-0.9497454025433387,-0.48430509999999977,9.972508102869542,6.708254500000001,13.38643,-25.34023,98.69096011306668,7731.037222523719,14.49311275,-0.0006095285621063564,-0.7962879816997738,-0.3963218516553919,-0.7152647500000002,5.565178919065688,3.6749495,8.719234,-18.932748,31.17310789979357,2477.903960000423,8.19045225,-0.0005524661737603729,-0.7449617019617031,0.9314078823619658,0.09345180999999998,1.7801372404491207,0.9233104999999999,3.493517,-5.560528,3.1459329496777495,248.0877534254907,1.72000275,-0.001353528162990065,-1.0231721321699652,1.481405289936994,-0.01990974999999997,1.0086252621297722,0.462862,4.008568,-2.519468,1.0075480683573501,79.36185016071602,0.914377,-0.0009459163241145591,1.2927618911718657,3.814310902969803,-0.44626495999999993,4.630884379901171,2.5453135000000002,9.704544,-5.65435,21.429791653136327,1694.2468072516933,7.9658165,-0.0014522512075038972,0.6961420585386319,-0.931640631457896,31.82490161,6.113904739999999,1.2296037033487688,jumping
5.59407013,21.652687514871424,17.36103,34.786852,-40.872614,495.44410846986034,41151.68400519329,35.8614375,-6.087124537186977e-05,-0.31409140713750294,-0.9849661184326122,-0.44808980000000004,10.833153734113443,6.6601455000000005,13.38643,-25.34023,116.38443209753072,9124.450345767833,15.8967135,-0.0005885866196032486,-0.7853204924737953,-0.5534278227573881,-2.2082994,6.204908363723683,3.0841805,7.235277,-23.564631,42.99246516422637,3740.689768961879,5.98266075,-0.00027836086122514254,-1.3543581808788312,2.1137580745644513,0.010584279999999995,2.108293634892321,1.055175,4.955643,-5.796844,4.40056505740132,344.6126095199139,2.11089725,-0.00020512428870976158,-0.6667602642438019,1.1646595116595826,0.14937062,1.269111234694371,0.669915,4.331229,-2.362597,1.61684847488638,128.600619055513,1.2827817499999998,-0.0005017211310337817,1.1659514733815566,1.9414282392096869,0.3658791,4.968112804770737,3.4451539999999996,11.661258,-5.168324,24.569190908334495,1936.9932460703794,8.61401775,-0.0015061570830701722,0.6253767199886919,-0.9451187351788355,32.24369689,6.692164840000001,1.9199713460830272,jumping
2.97950764,20.005022160097386,15.929447,34.596663,-40.872614,405.0763682865461,32554.92299645912,32.222063750000004,-0.0011947128133932502,-0.16942303235048006,-0.8947701127698737,-2.3143221,10.103926955508674,7.5923875,11.55726,-23.576153,106.42453330558064,8789.477531003025,16.955923249999998,-0.0014617830824944754,-0.47045336290255846,-0.9603952265535742,-1.9561765199999996,6.7814420004079015,3.042806,7.235277,-23.564631,49.35470262624667,4183.759789547564,5.92838025,-0.0008520238345721264,-1.27759993617393,1.4102477874776183,-0.18027440000000003,2.2801472147083803,1.4614924999999999,4.955643,-5.796844,5.17957946683032,407.5366660783074,2.88739525,-0.000538873870455915,-0.5072780837951786,0.16631862373777295,0.21762338,1.2509644897761587,0.7458545,4.331229,-2.362597,1.59662296865674,128.63059632038238,1.3584765,-0.0006713617745749379,0.7749910789090051,0.8614858362686775,0.92617971,5.006926705594684,4.225391999999999,11.661258,-5.105128,25.67643074006095,2073.262064997979,9.41306775,-0.00035568742573851376,0.38844571047608023,-1.2590979830228317,30.078012799999996,7.108446869999999,2.3366921129260754,jumping
1.0836276499999997,17.15042883027033,13.2892405,28.058248,-31.509489,292.3700858553904,22981.807456229923,27.118711,-0.0006529324437734767,-0.021008065287866882,-1.1058468263060455,-4.64336106,9.459177322123503,7.225850499999999,10.685472,-25.488072,110.14207718878615,10295.098126529552,15.496956999999998,-0.0007081128187986606,-0.3629595959403602,-0.934086809229647,-2.08184513,7.560474392949962,3.055375,8.553884,-23.649176,60.92324446129227,5102.27543020307,6.4280205,-8.424706330438133e-06,-1.2833600912960852,0.8316802258872498,-0.050393050000000016,2.2840918750914763,1.1105369999999999,4.710972,-5.776481,5.16744439640861,404.49708206529874,2.52629925,-0.000689797304681678,-0.7200798452102446,0.24092563193625383,0.24552881999999998,1.1090840327922018,0.675775,2.771068,-2.568623,1.2780511193272601,104.56886844054267,1.4639015,-0.00019560116329585004,0.197437832022025,-0.15455740374188354,0.53238548,4.3412361639227015,3.2761455,8.712535,-5.105128,18.94130241595562,1507.2681778435824,7.60467375,-0.0012181398019310804,0.45342283223157037,-1.170393243323528,28.0390209,6.30021483,2.4222675036325123,jumping
2.1095310800000004,16.494104786873468,12.261829,33.113904,-29.700969,273.7850591706446,21752.326189702297,25.5660705,-0.0005863407979864294,0.15233174219478748,-0.9477843627659355,-5.580161319999999,7.934696570382229,6.440626999999999,5.62817,-25.488072,93.46801592461932,9746.215252860255,12.73531975,-0.0009100683284734679,-0.5361535316187555,-0.682376299681891,-1.6416098099999998,7.455145826113974,1.584288,10.456227,-25.5385,57.718290064026576,4755.50428650347,2.67899975,-0.0013499670287528966,-1.7267714506862843,2.472049188146628,0.21610262999999996,2.06287392118648,0.858835,4.710972,-5.776481,4.25959467325709,337.3632224381943,1.6399712499999999,-0.0008519326881820172,-0.7682316279757071,1.2852604353828463,0.06232511000000002,1.0726458502058904,0.654666,2.999076,-2.568623,1.14294784810079,90.31042116515295,1.48787725,-0.0013469208374467792,0.3695240488488021,0.09066895032632605,0.07784744000000005,3.7267534128568993,2.6625094999999996,8.712535,-4.381478,13.7558643141527,1076.1924636899441,5.378586,-0.0008009572509904122,0.7344850178769431,-0.5251540025792774,25.48412193,5.41134776,1.5841771894869139,jumping
2.9080721699999996,15.709911785295326,10.5980085,33.312922,-24.796148,252.79019876467194,20410.291999964313,22.8167795,-7.244845952318432e-05,0.552801612937024,-0.7507037377285077,-5.46822191,5.656919075293654,3.600729,5.62817,-18.452561,61.58217694718104,7150.28340570919,8.99950525,-0.0006112043783496268,-0.339995926554529,-0.5904497932707957,-1.74902266,6.625151012586726,1.4042735,11.51177,-25.5385,46.51277994537659,3874.2987482779354,2.7440539999999993,-0.0003165254949172013,-1.5872846156845268,3.6223183915471733,0.09863179999999998,1.9333907187240043,0.8838365,3.540216,-5.874614,3.710347906506879,290.9684040035508,1.7992945,-0.0005629928483700438,-1.2532800484460334,1.7358721753215702,-0.06501401000000001,1.3273946888240713,0.8063015,3.088205,-2.961657,1.74858371481545,136.96775054143126,1.839893,-1.4762131226378073e-05,0.2720960708657042,-0.28805860194889954,-0.16014483999999998,3.3206368451770554,2.159122,8.010975,-4.042288,10.942009136750578,856.9751009883814,4.4149875000000005,-0.0002995872618251318,0.8438954576242658,-0.2599856367694957,22.515157679999998,5.23769419,0.7666187192783834,jumping
3.4676749199999994,15.388336655950658,8.4103815,33.312922,-48.334742,246.45766533730296,20206.495027420988,18.40224525,-0.00043058631957303665,-0.44940608539563426,1.0864153784780886,-5.820622960000001,5.6507916536972465,3.6685154999999994,5.361366,-20.57951,65.49178349283869,7765.826189908155,9.205556249999999,-0.00045034306461561616,-0.559417513467354,-0.5953483435830966,-0.7285525299999998,6.753731734445608,3.1503959999999998,14.607623,-21.982662,45.68755220641852,3611.661691100695,6.538490250000001,-1.8446440927971255e-05,-0.74424690463721,1.9180355560302687,0.22795199,1.893760018497446,0.8286075,5.421751,-5.874614,3.60242584732781,285.7938342060874,2.05187475,-0.0005076157874503143,-0.6827873414792907,1.9270850296449904,0.04987988999999999,1.3948911836401967,0.830001,3.58586,-2.961657,1.9287522034815898,151.0662249516766,1.71026525,-0.0005092113831203302,0.21802519794702838,-0.10812591502420155,-0.39544762999999994,3.0881808473937253,1.5532019999999997,9.064297,-3.828821,9.597871164819953,762.0814815590043,3.6513394999999997,-0.00013819791801290233,1.28154871950249,0.8082193238663011,22.27149387,5.07641673,1.3161298056388966,jumping
5.036113420000001,14.80201519706334,7.529465,22.047904,-48.334742,242.27109573425733,20934.701024712733,14.10547625,-0.0008562516650811696,-1.4983088648027805,2.287453913363837,-4.820847769999999,6.309942737618999,3.147103,5.361366,-20.57951,62.657796800024435,6716.145856741173,9.8963945,-0.0003175396207404098,-0.7176801019065462,-0.5520807635002454,-1.2378830600000001,7.389051515827764,4.2814309999999995,14.607623,-26.625917,55.58445595075597,4464.012892578978,8.29819075,-0.00033228902377649297,-0.7878082528550613,1.3434923154835383,0.00958879000000003,2.227565464783668,1.2349074999999998,5.421751,-5.736737,4.91251936579157,383.98239465797354,2.39407675,-0.0004071765808010023,0.009490721832420949,0.38257913144900657,0.060200860000000016,1.3603478511814395,0.7763074999999999,3.58586,-3.78679,1.83566495699656,143.81783975671323,1.6198990000000002,-0.0005491098217015923,-0.09628364865704778,0.6266817380900149,-0.34456669999999995,3.279953681573551,1.669619,9.064297,-4.844564,10.769241402484099,851.5161551873803,3.5634349999999997,-0.0006011423540571933,1.1295586422288812,0.60963901923733,23.544836569999998,5.36062171,1.4962190179983246,jumping
4.41349983,12.535697032435744,6.362366499999999,21.007474,-31.55049,175.05124383753832,15206.19873843803,12.277690749999998,-0.0006898268824728957,-1.2163010691295153,0.8826076959338245,-4.94547644,6.387420161458837,2.2738180000000003,5.168333,-22.951266,64.8488821744158,6980.422109488987,8.28337675,-3.342392216169939e-05,-1.0704352985647858,0.31753733884894375,-1.5267539999999997,7.652668919128757,3.9002295,11.705102,-26.625917,60.30868594645732,4895.452703149393,8.663307,-0.0004817286977545938,-0.8987390243508052,0.7282663440525963,-0.061059249999999975,2.3758711295226855,1.529741,5.079316,-5.736737,5.5920442198689715,437.17246821475067,3.315648,-2.4621784697309582e-05,-0.14682975900137793,-0.3978157241334932,0.21874876999999995,1.5352988389658397,0.976425,3.797563,-3.78679,2.38142212405707,191.42324977592872,1.8776897499999998,-0.0014921818873300848,-0.11461483660526477,-0.1327941517277793,-0.13874769000000003,2.920396575959484,1.7388284999999999,7.809201,-4.844564,8.462679920747451,662.8756278242817,3.6756135000000003,-0.0004239737382654194,0.7010833148220461,-0.050578004311661484,22.45561393,5.522256270000001,2.2516282847443807,jumping
4.45297124,10.834317892717825,8.60506,21.33099,-26.614095,136.0375726227281,12182.758711286318,15.908385,-0.00043594918279249136,-0.7469740204227469,0.07891754223131953,-5.8132652799999995,7.0235793034526575,3.838429,4.294001,-22.951266,82.6314127852231,9097.384693098486,9.05113,-0.00029713861041329805,-0.8933250607389919,-0.2216744400632975,-0.50104505,7.266933790578274,4.264971,11.705102,-20.063709,52.53128959161132,4124.841315384233,8.94526125,-0.00026185671341248185,-0.8463928641357559,0.038102513924150205,0.10045042999999998,2.0046371981100752,1.386536,3.463482,-4.890514,3.9884748819733313,312.42061372811816,2.81964425,-0.00010993476523216306,-0.45926110783563295,-0.23623879717585927,0.12687580999999998,1.4101691740957079,0.8540865,3.797563,-2.814031,1.9847887997372293,156.5090110616921,1.7298784999999999,-0.0006789970408114901,0.2104977546192474,-0.13534969999006208,-0.13489743,2.212166980034421,1.6508870000000002,4.645701,-3.412635,4.862943236699671,381.3688413796926,3.7763484999999997,-0.00012095166073993591,0.4076390932009492,-0.9449800693778823,21.830821569999998,4.65691091,1.7152957613344981,jumping
6.1544779499999995,10.775107433946348,8.603937499999999,24.701876,-17.21416,152.81950964799123,14903.032138106873,17.70220325,-0.0003760399767394441,-0.3092979139396325,-0.9666041243397756,-4.9885885100000005,7.712826892634146,5.044059000000001,4.670788,-22.775891,83.7788370110871,8490.294735209023,10.1580365,-0.0002746554819646207,-0.79834002510768,-0.5293700565994115,-0.8031888099999998,5.7061271359969,3.1304185,11.608736,-20.063709,32.87940028774779,2621.4097078030923,6.251560250000001,-0.0005243858475876286,-0.6722557015499551,1.0577943667076166,0.05161268999999999,1.4800545250382415,0.9310185000000001,2.862542,-4.890514,2.1713196528843492,170.27845254363172,1.9600137499999999,-0.0010128729981932418,-0.7791702422027872,1.5064795117751286,-0.07064534,0.9568775670236372,0.5509850000000001,2.396405,-2.814031,0.9114492955540601,71.82022504408616,1.10019775,-0.001066826288401231,-0.6555612741936461,0.8134343389779519,0.003730199999999999,2.316480779869714,1.9227150000000002,5.093713,-3.412635,5.3124362858627805,416.49123992818033,3.99652575,-0.0009780716164961014,0.3951464232635088,-0.9439304728836557,21.32344535,3.8491652700000003,0.2956014068620601,jumping
4.31060446,11.872325517118474,9.789741,24.701876,-20.459501,158.12390286315008,13805.46268926019,19.35652225,-5.333841966879903e-05,-0.0941120442991893,-0.9777844223858123,-5.030208720000001,8.72590596320924,5.5535749999999995,6.271013,-26.455779,100.6830202967469,9849.99110058948,12.435296999999998,-0.0005793664332023333,-0.7861195340477177,-0.5060610564172148,-0.8678562000000001,5.004021940468365,2.7635075000000002,11.608736,-13.352163,25.543007608760334,2054.6370123350207,5.02602775,-3.846788143109722e-05,0.05870871362568108,0.3804681381529851,0.019031719999999995,1.5721704751414867,0.9958805,2.862542,-4.751085,2.4473650092437,191.35538539783423,1.8946442499999998,-0.0003358070077342778,-0.7905104895949172,0.8736565112384675,0.18586907000000008,0.8236916950854809,0.46499100000000004,2.819604,-1.329902,0.7062306396499298,57.91770215103126,0.9089525,-0.000413537910867819,0.7776230866683875,0.9353958747659723,0.0359688,2.8175035753169397,2.28263,5.093713,-3.896384,7.860236887527938,614.6464001878418,5.04065475,-0.0005727498323227032,0.3025527006060815,-1.2858640999783917,21.62710196,4.31980519,2.3399096932965846,jumping
4.04282799,11.774175049035582,10.7010335,24.200441,-20.459501,153.58934426120626,13315.654131860003,20.811036,-0.0012947802326404672,-0.06398825327558773,-1.1591046950226804,-5.684555989999999,7.878200151044269,5.095683999999999,6.271013,-26.455779,93.75955404715971,9853.328068396579,10.1836985,-0.0006903872256014478,-0.6742312178992507,-0.2772670353866169,-1.31421167,4.850390808743143,2.743755,10.410138,-13.352163,25.018180401128753,2090.0087400295374,5.82460625,-0.0003121832224279754,-0.3684829528082446,0.2013588858995985,-0.25909834,1.6603813001331844,0.9076985,2.413685,-4.751085,2.7964293510043996,225.13761447920416,1.8250775,-0.0013783777571326887,-0.8580620156926189,0.29798337926966667,0.053089620000000004,0.9061323714178011,0.530681,2.819604,-1.520711,0.81568362353768,63.95939980563236,1.0470895,-0.00021226205465566168,0.7751367912487859,0.6394459855724577,0.20095699000000003,2.9869003116546384,2.737543,5.281055,-3.896384,8.872741448874809,696.3569597737225,5.864175749999999,-0.00017434859613020976,0.22222176465064775,-1.4023824473955675,21.552404350000003,4.57655835,2.324399335851188,jumping
3.73815389,10.997621500533233,6.9074219999999995,24.200441,-22.928371,133.71199638762315,11658.250183997816,16.0950575,-0.0016237628346296785,-0.567446866183347,-0.5975165715790918,-6.79061431,5.284391918447187,3.0183400000000002,2.672378,-19.115156,73.75799267544922,9369.449147547819,7.0524952500000015,-0.0007888232333408202,-0.392964323377539,-0.5572473851039996,-1.41088807,6.583771067414579,2.6850225,6.159233,-23.958776,44.90318619951236,3693.3425999246474,5.28621025,-0.0012953758107157333,-1.7652365118537507,2.9037895014756367,-0.18238185000000004,2.206969048859152,0.924586,6.127537,-4.425752,4.855268398005471,381.9422674055809,1.7634184999999998,-0.0001611423335759506,0.4874937340976725,0.9205714876106712,0.02887321,1.024841614304123,0.595761,3.060714,-2.501806,1.04063099332109,81.8266574218864,1.199986,-0.0013535102792852128,0.4774935084841782,0.6285747271413702,0.62583384,2.398512604032853,2.0039435,5.281055,-3.067918,6.08700207987656,507.044666943054,3.98157175,-0.0009105595577456504,0.20356405572964925,-1.0611371203701068,21.67826001,4.4079152,1.9203767739996223,jumping
2.5451112399999998,10.35544474909877,3.9100304999999995,14.189535,-22.928371,112.64047481609528,9311.802880184738,14.411336,-0.000582803440244993,-0.9844289524223798,-0.34775273220543124,-7.53874247,3.4871744219818424,2.0850504999999995,-1.422156,-16.246753,68.87141962381284,9820.929101174055,5.227140750000002,-0.00029617110398624363,-0.540455074746319,-0.5861416303702556,-1.7189918999999998,8.890568176242851,4.080767,11.416002,-23.958776,81.20671362372354,6575.428475752342,9.8626515,-8.90258772831306e-05,-1.052780547499958,0.11147039180727791,0.13867469,2.8906043182029344,1.7315909999999999,6.127537,-4.425752,8.291268060815911,655.5956358151595,3.39764825,-0.000975720659887368,0.5128972940444441,-0.5639628317969576,0.17605823000000004,1.2984061311523438,0.6501305,3.284734,-2.501806,1.6999963969505898,135.9587877875139,1.284055,-0.0012474515058910234,0.45245802434662125,0.10425616410197236,0.26170802000000004,1.7339575977139055,1.1212689999999998,4.301302,-3.295681,3.0450339488954,246.92325529348142,2.44777925,-0.0011015048765473906,-0.0914449649097956,-0.5780107406849422,23.784223750000002,4.72702202,2.103389563381691,jumping
3.0897337199999995,11.4293828438449,3.3624314999999987,13.812748,-27.23973,138.87093872976942,11671.520245388474,13.69000725,-0.0014591260782593973,-1.246999103538784,0.30273550893998813,-7.230047589999999,5.010666911193223,2.804882,6.515521,-18.460342,77.12930321964217,10111.82856511368,5.6043395,-0.0004905169439485838,0.6782001730500548,0.6886109839772754,-1.2179857300000005,8.402847268595194,3.161543,11.416002,-23.808689,71.38525303562793,5730.930231256921,8.4165165,-0.001356616783101575,-1.2420868202665527,0.7049490485551462,0.42434926999999995,2.7762504015823426,1.59667,6.093853,-5.352907,7.8105629323127905,625.3514165692281,3.2303145,-0.00029484283346529756,0.30847061646430635,-0.5260151077908031,0.07811589000000001,1.4266300337509303,0.800315,3.284734,-2.785806,2.02102261293867,158.73620953513887,1.5980665,-0.0013297184849849941,0.2596528159820099,-0.211653420219295,-0.12731748000000004,2.228380209471343,1.412146,5.155336,-4.899748,4.932231315097461,386.96522562108316,2.80529275,-0.0004383126876694706,0.10138624405850864,-0.1409814095887807,24.511826140000007,5.005610000000001,1.3162163887323408,jumping
3.57003002,11.778889581404597,4.069918499999999,23.842957,-27.23973,150.09993171691377,12746.686563577336,12.77299075,-0.001052366389236103,-1.1090905959088848,0.21607275619559596,-7.8516093,6.649189548578282,3.468001,6.515521,-21.68593,105.41737303623994,13052.504511081672,7.8535425,-5.737860931730223e-05,0.226373024108149,-0.24621012709860146,-0.41146597999999995,7.390126023099286,1.5897500000000002,7.697658,-23.808689,54.23712726361375,4255.186922996017,3.9142945,-0.0005875019869166065,-1.8873438405815628,2.5707251350502283,0.32827806000000004,2.5843993215847383,0.7740825,6.093853,-6.457923,6.72009513955094,536.7656376587777,2.7847555,-0.0013541488334570654,-0.2173445906166208,0.3387677960330646,-0.12397738,1.7001624468403536,1.152712,4.679389,-2.785806,2.8770172129413805,226.02431901543716,2.2111970000000003,-0.0003204474715039745,0.4734426382955453,-0.051736832267835986,-0.21304913,2.849011876787706,1.7627329999999999,5.268854,-6.111672,8.08108991913039,634.924724413399,3.2491959999999995,-0.00016962628467378414,0.010681215781613396,-0.5127103478356099,24.626746300000004,5.389357329999999,0.8893113118647856,jumping
2.80365952,11.17629942593132,5.9357500000000005,24.115447,-28.270883,131.52107887357863,10894.322230498066,10.053626999999999,-0.0003589017411171957,-0.7608448843621222,0.2678059602302518,-7.147594269999998,7.6564145396737775,5.4687305,5.765537,-25.791238,109.12258061583154,12520.891314896062,9.18643975,-0.0004554680939134492,-0.5056841211073241,-0.4143245939975433,-1.2082293800000001,7.755183093933712,2.5379285,7.697658,-25.359234,61.001254406926094,4880.188286725519,5.66595325,-0.00014336726435417468,-1.6909006522005556,1.9477261235461434,-0.015402369999999973,2.5613893244420716,1.1100455,5.884299,-6.457923,6.4953453516537705,507.8830303168055,2.237917,-0.0005863394115548089,0.07563981928779175,0.27832842070179575,0.16152518000000002,1.6413793781693997,0.922726,4.679389,-2.67329,2.693275384223,212.45845840647132,1.6185912500000001,-2.022428133598581e-05,0.3488571827517919,0.1346318894471974,-0.06782053000000002,3.0372211163051674,2.270341,5.66621,-6.111672,9.13706461252619,714.2040886000602,4.54983775,-0.00013320171649810683,0.018724941462501987,-0.8097031445034077,22.65003203,5.53922432,2.5257736626033154,jumping
3.3934321600000006,10.415129050114514,5.306598,24.115447,-28.270883,118.90554582375614,10209.135901417532,10.387243999999999,-0.0008934938291882756,-0.9952927898806724,0.9155693867088197,-5.1598352599999995,8.750033886154249,5.352986,4.941483,-25.791238,102.42136198909843,10084.016331195367,13.209708500000001,-0.0002983803151327865,-0.7762850494142219,-0.6681592427216883,-1.5579758400000001,7.286612210976032,2.4912419999999997,6.248118,-25.359234,54.991059056037265,4490.281241165904,5.1686325,-0.0006686860643277454,-1.6834721943147144,2.0026514066800756,-0.17357987999999996,2.142548630389246,1.2597265000000002,5.884299,-4.507485,4.57473946198782,359.8660085115003,2.46500175,-0.00037141082821095877,0.5813391206667747,0.5370632954092378,0.44206248000000004,1.197912280774942,0.619232,3.279995,-2.301402,1.6160631303308597,142.2915062984183,1.2401895,-0.001185529407145944,0.07974181787058,-0.013419080043863385,0.3884113500000001,2.8744039400718773,2.1470935000000004,6.159039,-3.898749,8.33043940740255,664.1547434807687,4.18652275,-0.0009532140744737076,0.34778671352598917,-0.9255287932781662,20.962920419999996,5.061279529999999,2.6666415889564643,jumping
2.42089547,7.1131110724453155,3.492991,15.518317,-16.353594,55.951120514321225,4829.871045080588,8.22187525,-0.00022413716804725372,-0.10615691947992616,0.2040845867171921,-7.6539559299999995,7.506622679245186,4.095057499999999,4.941483,-22.155793,114.36893158645475,13516.672649510023,13.661202,-0.0005281217229429173,0.25059698496628025,-1.0756550481804337,-1.1512967200000002,4.625146614424003,2.016217,5.802647,-17.619529,22.5035455303514,1862.2453771806458,4.71983225,-0.0003934074703907284,-1.7219163773062245,3.5663561117001716,-0.35155933999999994,1.2627409841905461,0.509668,2.916376,-3.24634,1.7021636147641999,142.6513443108184,0.963147,-0.0002491698248902302,0.5672325058503799,0.8293086881171736,0.7200404200000001,1.1790892477657282,0.867696,3.468549,-1.745858,1.8948071460885603,188.72518560880778,1.73655775,-0.0005386573838742385,-0.039296152412151605,-0.43274466468046935,0.6309483799999999,1.9631965102561013,0.85189,6.159039,-2.235516,4.213694990727539,360.66016575155084,1.67209125,-0.0005876158717271901,0.909943046153874,0.728098018718077,17.72741428,3.58666606,2.600307578777698,jumping
4.42415246,14.447298615719394,4.397101,50.596364,-28.110022,226.2103179081738,19207.61133410199,9.751657750000001,-0.0003774464925817489,0.6608576893279381,2.4687337424520166,-3.107539069999999,7.428454167103676,5.522226,14.125491,-13.967324,64.28691107120883,5788.134288735542,12.52840825,-0.0007856502090417174,0.2663025033436736,-0.8099880946162967,-2.0555762900000003,3.2576859926107686,1.561618,6.557868,-13.121871,14.731786730198053,1481.1205652984422,3.19884,-0.00018584997487012056,-1.1976449437803696,3.126414979874369,0.8908170200000001,1.2131424712379386,0.940013,2.760445,-1.502733,2.25055247208776,237.87350425827887,1.9302875000000002,-0.00043816696425532384,0.09772244071661518,-1.152390590894365,-0.9918134899999999,1.2949414057352349,0.7822465,2.508729,-3.168523,2.6437985107906496,283.70737273484696,1.5652135,-0.0008524944782172596,0.9238648860628632,0.525362980254318,-0.46385281,3.1717544192478035,1.2801745,9.582358,-3.699522,10.174585264402687,812.422656485504,2.53580375,-0.0006919366173838969,1.667149046882621,2.116596673395305,19.498089500000003,4.969302419999999,0.21481943536759934,jumping
5.29560742,20.34650164779441,10.480543,53.625628,-28.110022,437.88378595742245,36403.68491039684,19.40044025,-0.0002898617695479151,0.7459724816176757,-0.006399895841286085,-0.04599708999999991,6.593615546830728,2.1615155,14.125491,-13.256844,43.04312405190227,3363.415842088867,8.48864225,-0.00019484174139221166,-0.3753529993714193,-0.42955472369734027,-1.76227757,4.378104844798178,1.8628385,7.07307,-13.451523,22.081746245449935,1968.0172463641115,3.83356575,-0.0001085548544407859,-0.6183128077793147,0.7296718785240657,0.11503769000000003,1.3826230125603611,0.7837704999999999,2.718279,-4.986228,1.9057636010334098,149.9992455200043,1.511362,-0.00047745764764193236,-1.0479629006083093,2.7920966413828605,0.010485620000000005,1.1920410354926458,0.902214,2.508729,-2.119236,1.4068621602221798,110.08383872977907,1.8407335,-0.0006058149168514208,0.3479885608980239,-0.8475313184417859,0.43448228000000017,3.6630709196489706,2.3388619999999998,9.582358,-3.847429,13.472682528388175,1067.3794117742991,5.2404885000000005,-0.000164330137409017,0.93451694463862,-0.2113259855508085,24.340541920000007,4.80008585,1.6333927539902768,jumping
6.86937305,21.2902168034994,12.280384,53.625628,-26.75266,495.9288843246746,42450.62571237082,27.102213,-0.0005263854735089274,0.6837759097555569,-0.38268126127560054,-0.7980801700000001,4.785791052060104,3.2537944999999997,5.691466,-13.256844,23.311689991786015,1873.568932603119,6.658985749999999,-0.0005378452419510842,-0.8551861075312865,-0.01026164027345855,-0.8882578000000001,3.863898297070269,1.777171,7.07307,-13.451523,15.569414868862339,1278.9606213849665,3.604583,-0.00022441946841835256,-0.8372374081544611,1.0681313892148134,0.30240624999999993,1.6053538552201723,1.034002,2.718279,-4.986228,2.6428389305046305,213.64484228130584,2.03649725,-0.0002994031155179807,-1.1520824494906632,1.3517902806641917,0.14584426,1.0975662553586605,0.7213944999999999,2.294729,-2.27048,1.2138757162279599,96.66255860073866,1.3721825,-0.0008073574582816896,-0.07502148197670648,-0.5862514631275255,-0.17138130999999998,3.200080719933032,1.48577,8.121959,-3.847429,10.16748300136355,797.0179969643837,5.0225925,-0.000684452873454205,0.9159868024098958,-0.41149775111883935,23.15716586,4.96468414,0.6367614006336786,jumping
7.11100037,23.028905078704476,14.907422,51.561826,-35.053656,575.593490694881,48947.39022661904,30.3390615,-0.0006056562536290575,0.16212957258417207,-0.7103098693050525,-1.67303071,2.928731974903071,2.0569185,4.074333,-6.790106,11.290728027614549,1102.6056012732763,4.198719,-0.0007104931587236232,0.11949736901963152,-0.9164485931606667,-0.61067103,4.360357250088656,1.457545,10.404752,-10.298359,19.195507301797953,1529.1357383160398,3.9369275,-1.9227625861284728e-05,-0.0032248905027689127,0.43798810852705383,0.27846115,1.5833887493406649,0.993874,2.394221,-3.406549,2.55958934428253,206.28324237021934,2.0830314999999997,-0.0006981104536990102,-0.8717676661662341,-0.1565530181210164,0.11137923000000001,1.012929352490471,0.6052835,2.532333,-2.27048,1.02817094728079,81.37442507622222,1.1406375,-0.0003453343628671153,0.09577980893056436,0.17349012087125892,0.0005987300000000273,3.2614035304878723,1.8475625,7.358036,-4.173294,10.530385817269591,822.6923102952294,5.6507305,-3.796609923098271e-05,0.6953195719539792,-0.8431066011087225,24.814037169999995,4.92724667,0.6167910562595218,jumping
7.901678,24.02342461948664,15.770906,62.445119,-35.053656,633.7901963593592,54433.75656006215,38.25025225,-0.0006189182432279662,0.3449396788918083,-0.6897675529471283,-2.15305169,4.552627123431744,2.6821789999999996,8.523508,-12.710517,25.15478116756819,2330.037723354988,5.3812675,-0.00040293363251155204,-0.3064592294868171,0.18535045742755107,0.44996779,5.438486416472202,2.7126305,10.404752,-15.152304,29.48383416916861,2319.953050533605,5.2934675,-0.0002661062528847729,-0.6068628289390142,0.5672131398373419,0.21635171,1.5459375216141988,1.0193979999999998,2.690346,-3.406549,2.41283165494723,192.3672122449325,2.0279214999999997,-0.0005906754576724273,-0.7001374214158562,-0.3384064210258457,0.16027702000000002,1.1651367700656476,0.7147195000000001,2.532333,-2.879127,1.3696569791694997,109.25746997324791,1.3293697500000001,-0.0008614138454669108,-0.61599664163784,0.3909097492529643,-0.007653319999999988,3.455733043636293,1.9186595,8.132582,-4.173294,11.82272853349798,924.1449055301202,4.916646999999999,-0.0006008105644802196,0.8637362091983235,-0.46850661890270207,27.397274539999998,5.121279669999999,0.9071033290710422,jumping
9.2459863,22.21140016725837,15.335984,62.445119,-24.021474,573.901097075972,51519.8803431861,36.39556825,-0.000297465290663363,0.523492557633494,-0.7630222096478723,-3.0205876700000003,5.114294689904557,4.056825,8.523508,-12.710517,35.01839994559013,3449.3676589274796,8.060379,-0.00019102677139421788,0.009513586195979539,-0.6802710655147752,0.19934272,4.915293725861324,2.2518965,10.313473,-15.152304,23.958248807393762,1875.227209625852,4.436904500000001,-0.00019493446918827811,-0.9497493612091709,1.3135119620882145,-0.004398920000000012,1.3912708424542677,1.1332345,2.690346,-2.789148,1.9162975619899396,149.71619916005886,2.4705865,-8.263577724963489e-05,-0.18359164931690136,-1.1201136079409983,0.09548272999999999,1.398375263851371,0.7213510000000001,2.91845,-3.339749,1.94501579649413,152.75409053161292,1.4843692499999999,-0.000373825656017326,-0.5784682557456184,-0.12117481728867396,0.21681137,2.8591728438537363,1.593071,8.132582,-2.876668,8.14012782768163,642.9422610311565,4.781066,-0.0014006286304722832,0.8535664433882502,-0.22680792063601984,26.868871269999996,4.762907040000001,1.6951241509583717,jumping
7.760897409999999,19.03864989294729,13.804218500000001,45.672838,-24.021474,419.0770164573042,37493.605169926515,27.36991475,-0.0006810018037722792,0.20531083288415236,-0.9304307965737495,-4.157324689999999,3.907644858186952,2.9525745,2.318934,-12.720693,32.40034003242137,3886.3332625745056,5.57396325,-2.7110692886996635e-05,-0.09894271189387358,-0.7356142089162856,-0.33883044000000007,3.7969022090667894,2.3252189999999997,9.196428,-9.803657,14.387107788434697,1134.5055222055207,4.52810875,-0.0003818354813019651,-0.2748147770790301,0.10834871276608382,-0.042242879999999976,1.6401826699087934,1.447448,3.077042,-2.663903,2.6650816596731404,208.50872574021642,2.90337325,-0.00015667761414335532,0.15963819263540754,-1.2487848260802648,0.23028315,1.2999837786759783,0.788612,2.91845,-3.339749,1.72608857574639,139.3730988257165,1.6307807500000002,-0.0011527520993302445,-0.3311881875900594,0.001100457012595868,0.48919367999999996,2.731376088313983,1.64424,5.484089,-2.878538,7.6251216390072,614.5982609242764,5.28735175,-0.00032179469601100635,0.3529259448115324,-1.5141136158134971,24.04210621999999,5.00295065,1.8793186753302837,jumping
5.672565550000001,16.11577489267256,11.9991405,37.337575,-22.94154,289.2990183064291,25210.770317548304,23.5728235,-0.0012198686960907179,0.14626391095035343,-0.8689721057134614,-5.01396556,4.7585152751436475,3.2656159999999996,1.774253,-15.487492,47.556883584403785,5684.430759944219,6.67540875,-0.0001634641917070699,-0.5349916914342512,-0.6961093515495902,-0.6966034799999999,4.1081629312300665,2.3802105,10.206482,-11.797578,17.1934890511856,1381.4799019520078,4.791845,-0.00015075846356260038,0.24170212308124056,0.48689607423577463,-0.14554161000000002,1.8283277090414851,1.625007,3.077042,-3.524406,3.33053674977379,262.3982993889036,3.0082477499999998,-0.0010154211983641587,-0.04457603695678838,-1.1720088200483059,0.19425689999999995,1.2016937349221228,0.853264,2.686224,-2.38486,1.4673628974231798,117.68792557466183,1.61827925,-0.0002408768517613429,-0.03738284457497961,-0.6019489049059863,0.29142487,2.775472473212301,2.1810780000000003,5.484089,-3.392164,7.711143429918129,610.1430374048733,5.32531525,-0.0008829673543475222,0.3527855868589057,-1.3770501820465777,22.422002330000005,5.078098740000001,2.3385132426255604,jumping
4.334157430000001,13.675540493309967,9.6863415,31.053843,-20.940137,203.93512433434336,17421.651623244106,19.144597750000003,-0.000803709880594113,0.27791707657622083,-0.8635696173080558,-5.777902919999999,4.9106771807111045,3.9139209999999998,1.591845,-15.487492,57.25776502236971,7082.626322406291,8.473005,-0.0003096567158628036,-0.3963221989525515,-0.9390546366515564,-0.9810211399999998,4.770437172719689,3.208006,10.206482,-15.33127,23.491902587804056,1911.682727316952,6.186318,-0.0004167928093433255,-0.4140789681012629,0.5326480866754331,-0.052752940000000005,1.8701466193413105,1.3122289999999999,3.29402,-4.026309,3.46525676673404,271.149377624933,2.7557357500000004,-0.0005295686215935342,-0.38270502783662985,-0.8267124016716405,-0.01156089,1.2084340574509191,0.7478990000000001,2.686224,-2.783251,1.4458433966728104,113.3955897321035,1.5109042499999998,-0.0010587158860382979,-0.15391834697636866,-0.4235221915319678,0.061457679999999994,2.2653534635769215,1.6548405000000002,4.651196,-3.392164,5.08428509822154,398.6116630520438,3.5492462500000004,-0.0010529635798289126,0.43330323841827684,-0.9897475162506981,21.33375539,4.45978777,1.9524811965140558,jumping
4.49163002,10.996371845187797,7.233556500000001,28.222849,-14.547917,139.8857320566277,12505.44778624421,14.45574075,-0.0001505983556136843,0.45600228825768513,-0.7528654140954174,-6.149792769999998,4.017158324873743,3.0912890000000006,1.313968,-15.274258,53.79613651097568,7158.341560909767,6.036417750000001,-0.0001238693090590103,-0.11940367961864032,-0.6872723543859993,-1.31563178,5.369470090749517,3.573346,7.875128,-18.056171,30.273783945445057,2501.299290361014,7.174075500000001,-0.00046338566182226916,-1.048644393216063,1.0802673249087738,0.17422619,2.0642374601936235,1.336827,4.101899,-4.957361,4.24882029442787,334.6142647057266,2.7218785,-0.0005865684139134765,-0.5375158309955688,-0.18014477910581972,-0.04428779000000001,1.1946321682352232,0.78827,1.93245,-3.014736,1.41483596555165,110.95908433205615,1.5236895000000001,-0.0008514441643496308,-0.5170139526332671,-0.18313482281689986,-0.03257728,1.8325852133921237,0.8953595,4.651196,-2.432212,3.32584615787222,260.1822514421078,2.22296125,-0.0007841736593491728,0.969775180452772,-0.03462901241808636,19.49422295,4.0917032,0.6800924448399467,jumping
4.721886399999999,10.276405849183126,6.554875,29.108554,-14.011018,126.84468317985889,11656.846644126332,12.7039715,-0.0005412388942722518,0.6051525422212412,-0.42922269197201635,-6.215069190000001,5.602824830150848,3.8219689999999993,3.110966,-23.690177,69.7048146530686,8468.635344295988,7.44252625,-0.0007093552822273889,-0.8801012165652836,0.9479623508302404,-1.3579119000000004,5.697143645215515,3.2843210000000003,8.166622,-18.056171,33.976795985238915,2799.215080635322,6.347365249999999,-0.0004832863349125499,-1.134652569337825,1.3131470244724284,0.08733608999999999,2.0313228155419796,1.261982,4.101899,-4.957361,4.092637249748471,320.47624597555324,2.347239,-0.00042781255900225265,-0.46781273621521174,0.004934761414991051,0.04711314999999999,1.0297729933392974,0.461685,2.751168,-3.014736,1.05204774253579,82.50252481007344,1.036017,-0.0004980293644360696,-0.23264047126833762,1.320304134165836,-0.27931113,2.304406584316721,0.9824634999999999,6.143245,-3.314806,5.335201516125709,422.99610047586594,2.88873,-0.00037322252590963104,1.0298717378590498,0.322827594446188,18.98852863,4.22368253,1.3567375089940952,jumping
4.76087895,12.588399368365257,9.061005999999999,36.833296,-14.011018,179.54908904743726,15807.015367944377,17.4555635,-0.0007178375601136443,0.695536586914387,-0.3349898685740236,-4.815233350000001,6.641276313506488,4.1243865,3.110966,-23.690177,66.85195777657114,7039.637202934735,8.808566500000001,-0.0006654954115983417,-1.0051003028857792,0.26851943506226217,-0.94123395,5.29187119852597,3.0484925,8.166622,-17.55698,28.609783122603414,2305.116942058296,5.91670875,-0.0002998090835857951,-0.9649203636681059,1.1686475142999386,0.016190040000000003,1.8869058538952974,0.8849575000000001,3.730094,-5.413281,3.5250716818449,275.7395434498984,1.7635697499999998,-0.000948517842288032,-0.6914142878385301,0.8821966280010809,0.11437226999999994,1.2036548208912237,0.5447545,3.782032,-2.883739,1.4473780947210897,114.15095353966845,0.99672625,-0.0002725530704145017,0.4445778479258471,1.5357099024572918,-0.18329916000000002,2.885545295501879,1.5846170000000002,6.713745,-3.314806,8.276706517925799,649.3069476531831,3.55159825,-0.0003638557225164486,0.9926566407767063,-0.17597456137305523,19.84828641,4.59164143,1.7755188059392235,jumping
5.350020160000001,12.848700798521161,8.6176295,36.833296,-11.257835,192.06093680022556,17245.488332391265,17.777621,-0.0005633249229529664,0.7302187799685405,-0.4874483234888749,-4.52961707,5.666526314673647,4.032733500000001,2.816329,-18.363078,52.30585607097541,5689.727574045785,8.100107750000001,-1.313770330556381e-05,-0.7689849456793354,-0.269060505718703,-0.75800719,5.88405126690179,2.8367549999999997,7.257274,-22.887071,34.85041361850497,2768.389052073474,5.40498475,-0.00032250534296543974,-1.740544914559643,3.357412889369191,0.06196986000000001,2.387911618995044,1.0471135,5.314276,-6.692494,5.64894094467864,441.73035096820774,2.02876175,-0.0003649641263817059,-0.6751010790527537,1.0947110435222989,0.13667708,1.4000207245848921,0.8500570000000001,3.782032,-2.883739,1.9591380731718604,154.58111041727975,1.67329475,-0.00029374773550720074,0.2989841396989814,0.00645869515784403,-0.11065808,2.960178895624974,1.7497275,6.713745,-3.413447,8.68727771383174,679.6954161924616,3.77473625,-0.00014842056803689605,0.9220016073925945,-0.2835633564444864,19.668809520000003,5.1948713,1.7263464887730096,jumping
7.30190957,14.58349384044486,9.897929,44.207886,-15.269769,263.8693930368077,24789.948537994416,22.201955249999997,-0.000491994937810099,0.701137012918833,-0.4434593189628302,-3.2864383200000002,6.736796128759784,4.573449,9.277681,-18.064401,55.73125469083247,5198.230279407154,9.384597,-0.00043217051164635593,-0.4246508668270013,-0.5417871779182968,-0.8870307900000001,6.033346398667191,2.923096,6.124966,-22.887071,36.82407970105528,2939.9352297049923,6.110564,-0.0003703308764379475,-1.7752344190895686,3.124818441710156,0.18846506999999998,2.2918381039982436,1.020445,5.314276,-6.692494,5.23551575859899,411.9198315179346,2.0869605,-0.0003177313047184999,-0.8025333660085535,1.4936761816108968,-0.04717734999999999,1.2208715166851418,0.868833,2.927283,-2.43822,1.4778476900035702,115.63923774634827,1.94394525,-0.00018665393463653324,0.1583136571677469,-0.342259406388266,-0.18727850999999998,3.2070624012384608,1.54093,8.490096,-4.009814,10.21746999329085,802.1545119025586,4.044978,-0.0008804924934024086,1.0564421523842056,0.1154485726938339,21.92522188,5.24947729,0.6749527516009546,jumping
7.83175683,14.769364748554013,11.879356,44.207886,-15.269769,277.2892087693233,26460.883874124767,25.303194750000003,-0.0004133783576352152,0.5056808457427525,-0.6462539831211354,-2.6722373,8.200605579867316,3.069591,9.277681,-23.079655,73.71828474529676,6317.529249037777,11.004013,-0.0003223076435948898,-0.9152888592657962,-0.3065764699244533,-1.1982874900000002,5.141294424433583,2.090138,6.124966,-20.090345,27.60447218381523,2269.8779612179924,3.98065925,-0.0004925354315857944,-1.7271319830283698,3.1571325924121876,-0.04172699999999998,1.9489714086972887,0.9850155,5.17814,-4.924684,3.7622457989292992,294.2877163240902,1.85502825,-0.0005086733378598629,0.047311439745678134,0.6840915322278796,-0.17900859,1.110177151982967,0.7782355000000001,1.675549,-2.876111,1.25221245099095,100.39525617051027,1.4636930000000001,-0.0005215087346029712,-0.5233294872537858,-0.41773645097423184,0.09908786999999998,3.4552754796948975,1.4794915,8.490096,-4.009814,11.829357760156133,928.4304446853419,5.08506075,-0.0012635482557128781,0.9571411937487624,-0.3640201423621652,22.739207079999996,5.171985439999999,1.5519966959493887,jumping
6.287900780000001,12.043159229556107,6.7135655,32.044893,-15.332767,183.12500360528261,17563.363965300734,17.911659,-0.001968196638328918,0.5150303306351158,-0.8458707277748112,-4.02222588,8.850272815633383,3.5551650000000006,8.242488,-23.079655,93.72235665176964,8609.604991514883,13.243489,-0.0013351208835760988,-0.742496932363304,-0.8314256148533707,-1.1372966800000002,4.763498469829068,1.2844889999999998,4.873846,-20.090345,23.75745223368225,1958.1947162572067,2.63018075,-0.00041465875713905364,-2.2239098717952737,4.942164177080985,-0.21178328000000002,2.0633713903266826,1.122846,5.17814,-5.306277,4.25977863716204,339.53875656178525,2.25719625,-0.0017680696495714452,0.31253697112371587,0.3041570516957419,-0.035395760000000005,1.2223067105002252,0.89125,2.46541,-2.876111,1.48034621741452,116.4275380271954,1.97787975,-0.0017112524901809778,-0.4059110645221152,-0.7062267506063638,0.5855149300000001,3.533788542787778,1.4941879999999998,8.272398,-3.1538,12.705612583739692,1019.54262642911,6.04860775,-7.906386823531906e-05,0.8228341667549297,-0.8012132119922817,19.971257120000004,5.50959901,1.9757615363782692,jumping
5.488240450000001,12.724390743243077,5.239710499999999,36.337696,-16.287305,190.41180182587905,17265.31157539772,14.46816075,-0.0012774765797192555,0.8310358422301675,-0.16075150121278758,-4.4754273,8.828372211536612,6.873079000000001,8.242488,-22.475718,97.19020386396276,9187.679875780064,15.073071250000002,-0.0016788163843974686,-0.41988803106664363,-1.1388733818119006,-1.65874929,6.474950267995375,3.1413420000000003,9.746346,-20.916494,44.257180370358746,3691.168291809786,5.4368575,-0.0012953307428363113,-1.026602010848207,0.9895780743443772,-0.32724476,2.2404490037637825,1.3153325,3.735554,-6.541032,5.076504754028919,405.7346011203846,2.4936782500000003,-6.335994196784993e-05,-0.6492097876883339,0.1390817223122398,0.33806583999999995,1.251953350062195,0.7588755,2.764784,-2.373791,1.6660018309995401,139.37222059750823,1.5926475,-9.746787016709052e-05,-0.28917195586165106,-0.5143653086421529,0.59092334,3.47322059431454,1.6634255,8.373486,-3.07396,12.291819077559701,988.7413727433909,4.8428825,-0.0009603607013014616,0.9344582366864536,-0.4545256347857416,21.84570308,5.5718301199999996,2.4665864270014057,jumping
4.7583815199999995,13.126238880540706,7.7600565,36.337696,-16.287305,193.2173603674059,16869.977029312315,17.610587000000002,-0.0004786693394125302,0.7023348763916633,-0.46764623508988645,-5.16364497,8.61360589629137,7.811457,7.13502,-22.475718,100.11549384746553,9905.90525926519,15.630209,-0.00026087776938319156,-0.20904900214661634,-1.290116011177145,-1.9837501700000004,6.4701358101994995,4.119448500000001,9.746346,-20.916494,45.379295565376715,3854.238853778402,7.874117999999999,-0.00038524183700546925,-0.8029420994620715,0.6709968602542022,0.08248515999999999,2.169730323586114,1.147076,3.464987,-6.541032,4.667456181938441,367.43065524560427,2.4661202500000003,-0.0012164510885283868,-0.9309993815346005,0.6424286547295415,0.49155536999999994,1.4018563601980736,0.7172815,4.124337,-2.22498,2.18717592385735,190.47069639205426,1.46923825,-0.0010193533032866167,0.37926317703345797,0.03948790893652099,0.27377822999999996,3.4186637506704356,2.204931,8.373486,-4.373796,11.645343740968508,916.9550391803407,4.9059875,-0.0008865406195915572,0.6773458213944049,-0.52568558240573,23.23985562,5.639125480000001,2.2757645131674353,jumping
4.771184500000001,12.59633425707788,9.368361499999999,29.827413,-13.235596,179.84516188191367,15837.6285962711,19.81516175,-0.0006518808080987024,0.44869163309935045,-1.0249266360624372,-5.32161892,6.857129713913992,5.321562,7.123199,-18.801067,74.86965356400975,8071.797601491684,10.51039525,-0.0009283208473919461,-0.18732323967776768,-0.802126051298087,-1.63904201,4.557220754339579,3.2606034999999998,5.259163,-16.92536,23.247037104290413,2047.013311060805,7.03876575,-0.0015907909093054802,-0.748291678186688,0.3810753835169849,0.13988444,1.6850975614615626,1.1691384999999999,3.13087,-4.024971,2.8307259102813807,222.95071834227775,2.340165,-0.0006488193477053441,-0.27507242681812677,-0.4078345603544373,-0.17422771,1.468675720507398,0.8249930000000001,4.124337,-3.418276,2.1657935832196897,171.665374839513,1.649079,-0.00047930981837128597,0.6191632971128579,1.1481257476510205,-0.07926408999999998,2.9180723758149534,2.1220805,7.121263,-4.373796,8.43627772255291,659.6001803240828,4.2158225,-0.0001589521282890697,0.47682772061713324,-0.35796905611292207,21.05409165,4.787937920000001,0.1267334310665504,jumping
4.53262477,11.290744250492368,8.863709,29.827413,-13.235596,146.7507839783438,13071.29836123175,17.34112825,-0.0003212065560641867,0.3035516325778698,-0.8497425642360681,-6.99145493,6.370182627059503,4.4548615,1.457919,-21.836017,89.0538764732911,10786.15315485578,9.327211000000002,-0.0009010874156649318,-0.6072187361317566,-0.7338889089319096,-1.6939096700000003,4.320026131442162,3.4183965000000005,6.775291,-13.623905,21.345329488699207,1898.687264493109,6.90540125,-0.0010711551053559875,-0.22359920085424229,-0.31270328458107954,-0.11889315,1.3615376311202911,0.9799859999999999,2.309067,-4.024971,1.8493824548640097,145.90364931942574,1.8546827499999998,-0.0008484008006714836,-0.4278412147313669,0.11295556489450576,-0.24289991000000005,1.5525820006246687,0.6774195000000001,2.833368,-5.069739,2.4454061262550706,195.8625844838279,1.43255775,-0.0005717633172666054,-0.7490678122237048,1.143359143860983,-0.24013808,1.8091446776442057,0.9895225000000001,4.350282,-3.732452,3.29794071746796,262.3085129809723,1.86721675,-0.0004886762736366916,0.09856357817781214,0.004213397387002882,20.840077030000003,3.5853087400000003,1.0364453780351892,jumping
4.86742994,12.552542923521887,9.76939,30.641142,-13.284826,179.68254472919918,15893.832366365028,19.11179,-0.000813437629706265,0.4137449268311305,-0.8975141215326006,-6.71206504,7.632864911075471,5.563227,4.379593,-21.836017,102.72983758441009,11549.759789108426,12.980314,-0.00045272113093099744,-0.3553456622821189,-1.1783593254069273,-1.53503043,3.8711767953951033,2.901099,9.132982,-8.067562,17.192468104419433,1528.1951393687552,5.70351225,-0.0005311744035332179,0.4120847668149489,-0.15587387046752754,-0.02598174999999999,1.1442960915367182,0.974884,1.591406,-2.432107,1.29699446098821,101.50751880662952,1.91038225,-0.0001889828901266351,-0.3176965024250576,-1.0662754180617549,0.010038399999999992,1.4813405202493948,0.6962624999999999,2.833368,-5.069739,2.17252680903798,169.76702150049715,1.487277,-0.00024911412871425924,-0.9409088366869515,1.9063454095238273,-0.18839178999999998,1.151449862885307,0.9217390000000001,2.510002,-2.345875,1.3480698854106103,108.09593107178695,1.7482305,-0.00018081206238823176,0.2955310976235065,-0.5910268916914823,21.921021650000004,3.0054318600000003,1.5113865010666718,jumping
5.314464780000001,14.914898592987083,10.308759,31.960497,-16.123003,248.47319393655772,21626.884029751258,27.513566999999995,-0.0008239292557539087,0.4430314143898001,-1.2657247000397795,-5.4500798700000015,9.496432562936455,6.1455415,8.562413,-27.129597,118.98377969755505,11617.124204144267,15.30291375,-5.412202515783483e-05,-0.6288177937728939,-0.8092335460446889,-1.69187309,4.0273221024850585,2.781613,9.132982,-11.058817,18.919564636659167,1708.8543042585388,5.759812999999999,-0.0009204707009018595,0.05014448808400531,-0.06592480931324518,0.05794556000000002,1.3809042370650941,0.8316935,3.579251,-2.972355,1.8911852347486002,149.07329478263358,1.60079525,-0.0008975520450946144,0.07338856984802136,0.16940041219153512,-0.0407559,0.9223057286980837,0.6115395,1.706978,-2.079514,0.84380242200222,66.09027663411933,1.373952,-0.0004031556767460201,-0.4032544349430281,-0.7304728221015933,-0.03463228,0.9748034623961888,0.703085,1.795347,-1.789589,0.9419387672146,73.68799231867229,1.46102225,-0.00014913331592533648,-0.14168310174189372,-0.9015790550035732,24.121072979999997,2.63421174,0.29323731829402677,jumping
5.442832899999998,17.39547692600253,10.373402500000001,45.56884,-16.4546,329.201021285578,28033.516599546056,26.858528749999998,-7.346929609975232e-06,0.7267723530412034,-0.6666912832877969,-5.470387169999999,9.766409685855827,6.292635499999999,8.562413,-27.129597,124.35406636015927,12053.600418620506,16.59335175,-6.528673143774743e-06,-0.5127293051579145,-1.026659563936197,-1.5113607999999998,4.774935655145501,2.8538135000000002,15.186421,-11.058817,24.85622187344864,2121.839324130131,5.229646999999999,-0.0004969973270117411,0.8507417232969039,1.7822123047900646,0.10817455000000001,1.5317067574189576,1.0163105,3.579251,-3.097249,2.3343660680833698,183.31467305988588,1.91207175,-0.0003042219474126124,-0.02886328633015017,-0.41543415447299825,0.11815632,0.7729686968246815,0.5110285,1.422325,-1.76193,0.6054667161640799,48.39753629361503,0.982437,-3.4382362235674504e-05,-0.5917255922178704,-0.4317503614617544,0.12338716999999999,1.6785389656704972,1.0755865,4.953623,-2.089758,2.80454252240205,220.5380183104739,1.89308175,-0.0006931633354081611,1.1917980271720487,1.1990878836953467,26.399760390000004,3.1558003399999994,1.7249040239418645,jumping
5.7628299599999995,19.203907245609848,12.3408375,45.56884,-21.680992,398.3123621108799,33735.44104877195,28.4669455,-0.0006181468450859464,0.6035899979549995,-0.7586502019120611,-4.6959512000000005,7.380436917704042,7.4599585,7.710826,-17.573141,75.97809827802807,7660.6397855312325,13.984531749999999,-0.0006101189484334736,-0.10842623856992005,-1.3677050953563896,-0.92835025,5.109037318029754,3.1315405,15.186421,-11.581951,26.703073880525512,2154.960209806028,5.967847000000001,-0.0003872320543713087,0.4949761777801581,0.8052297778363209,0.09804884,1.4489849671587955,1.2789205,2.412152,-3.097249,2.088175435727,164.219779497332,2.6086842500000005,-0.0008950447703350164,-0.1991419751039088,-1.186361014542201,0.34161450000000004,0.8930381172034895,0.6084935,1.934878,-1.673507,0.90624237460082,79.98696747610987,1.2639987499999998,-0.0006461927097732125,-0.41604295480698855,-0.6066166888695359,-0.39647182000000003,2.7925651149563437,1.6743735000000002,5.176284,-4.301374,7.877625626112539,627.8745381786077,3.6711080000000003,-0.00039398350681879037,0.6806522745920736,-0.6998336907471776,26.547743010000005,4.533992999999999,1.7398422750918006,jumping
6.339715830000002,16.826655118455836,14.261137000000002,42.100091,-21.680992,320.496956055854,28251.74302171529,26.628049250000004,-0.0011361453687967185,0.20168818970142496,-0.8974191301125116,-3.7058650500000003,8.711955394115229,7.257274000000001,14.054862,-19.54297,88.87262088997443,8024.491495739522,13.829918499999998,-0.0008821712698066771,-0.07227671966264654,-0.9574035317247054,-0.7899638499999999,4.7058810982813934,2.6949734999999997,7.838467,-11.581951,22.54790662635729,1810.4353594918398,5.795913499999999,-9.980676359450212e-05,-0.45135270339017675,-0.4045848691062157,0.04708647999999999,1.379312027934425,1.207701,2.412152,-2.683606,1.8856937902993203,147.59794513995917,2.2945355000000003,-0.0005536385809602381,0.01799127096738772,-1.1432061610578579,0.18822234000000002,1.0006676194387913,0.6775869999999999,1.934878,-2.552972,1.0267499770224398,83.02395538417727,1.33071025,-0.0003286826354587948,-0.5437192313135524,-0.15013962308798767,-0.6958013099999999,3.0006908265445635,1.9442305,5.176284,-4.301374,9.398243445141329,772.2385486784704,5.3702175,-0.0003966893046785772,0.4827448946081164,-1.242721903460017,26.034487530000007,4.86084169,1.5425556488641188,jumping
8.37994969,14.015269270838797,12.803965999999999,31.967829,-15.501857,264.6870518137082,26165.60969572702,26.0112055,-0.00015826050297544446,-0.036026535722893306,-1.335108615224207,-1.54321858,10.857319748011303,7.56867,14.054862,-20.300735,119.08410177510788,9491.04811246739,18.48753875,-8.429113423791944e-05,-0.44062841301883454,-1.1843867388968852,-0.9749443500000001,4.017778910167802,2.461838,7.838467,-9.837775,16.931638382876212,1403.6969560882187,5.01480475,-0.0013333075038381105,-0.17518281709219619,-0.3701299666638316,-0.15000480000000002,1.460299362380346,1.0862915,2.287233,-3.128475,2.1336509255137996,168.62164235719553,2.1757155,-0.000499345770202002,-0.025254589569965256,-0.8997889170015645,-0.14200526,0.8563141648472319,0.498124,1.265485,-2.552972,0.7461067032965001,60.12329104426868,0.94369775,-0.0011556609014330593,-0.9147516934500125,0.48563308446405173,0.29972168,3.449985718206594,2.967708,9.417838,-4.190655,11.873210526733201,943.8247005392245,5.8798745,-0.0016475480062425683,0.5065599410779663,-0.7169777648218134,25.8722968,4.803164359999999,2.010926874508661,jumping
7.08745489,12.985270765753738,7.423297,31.967829,-28.165837,217.16310110912428,20967.83066804683,14.698340499999999,-0.001230897938311592,-0.4883313691111917,0.3799156776634942,-1.6805320100000003,10.517885181171886,6.381146,12.868235,-21.714811,112.34383743410666,9036.587351784967,17.292682749999997,-0.0013054437381171508,-0.5776858368530241,-1.0134118186111298,-1.7883534100000003,6.155240450589504,1.9987840000000001,6.003012,-27.579258,40.7063230735862,3430.5621938868903,4.10650475,-0.00028465667856664487,-2.3888168643049443,6.548512865398493,-0.18069027,2.0591109236012364,1.1461465,4.24646,-6.698368,4.230187391409671,334.16940214823364,2.3142835,-0.0009706461179687867,-0.5086584400787753,1.0974330116060376,0.08492936999999998,0.9572489190251093,0.4416715,3.798964,-2.357791,0.9143752359335902,72.14073757581191,0.887125,-0.0005653450473933474,0.5941397412949344,2.4271538331515874,1.0052807899999998,4.285974336891674,3.559437,10.56182,-5.229508,19.196469723072113,1580.7665696938275,7.3551135,-0.0007260819594638001,0.3044288233584345,-0.9805712701462928,24.569162750000004,5.87684713,2.003173730428271,jumping
2.93658259,12.520528168826814,8.372074000000001,25.105599,-28.165837,163.81950667801306,13514.38519304274,17.5638635,-0.0010603249053555374,-0.4988992353319164,-0.30815284122123376,-4.129332,11.211328246728598,7.4397575,12.999617,-26.755204,141.48832501155965,12443.646943129857,18.19780275,-0.0014818065166591835,-0.4494379999487743,-1.065514107142949,-2.80964649,7.5075449371555925,1.8837129999999997,7.637803,-27.579258,63.69371207234583,5616.681476126676,5.3952585,-0.001162971119194104,-1.6268736233150178,1.9700204156113044,-0.09082469000000003,2.317724839080777,1.274341,4.24646,-6.698368,5.326379069708691,416.8118301881599,2.51063825,-0.0001613402162645197,-0.7860455232841437,0.5119062788294673,0.31592346,0.9139223268194288,0.5964090000000001,3.798964,-1.455071,0.92670911184282,80.62497337840973,1.26191325,-0.0011671272860453033,0.7758914018789113,1.3703916552327735,0.42268191,4.439117105699664,3.5102729999999998,10.56182,-5.229508,19.68736306837545,1559.1309253969334,7.860243,-0.0013713906217307714,0.4658949526857706,-1.0144765057005651,25.00230974,6.28345222,2.6665394841520205,jumping
3.4649020800000003,10.776777539301515,7.801656,25.105599,-19.702933,126.98309121426605,10858.706372372122,15.6022635,-1.1494102775337674e-05,0.09218805536885702,-0.620142651442424,-4.88097219,12.65303404694571,10.300454,12.999617,-28.589611,182.32216740678905,16110.88771643224,21.97937,-0.00047951463906031785,-0.3785759044961876,-1.1976520887462347,-2.90481755,6.97433716978497,2.5085249999999997,11.427225,-23.179463,56.592930167053794,5088.339154594261,6.37190575,-0.0006642558956235884,-0.9817546316853066,0.7210132746942182,0.01276283999999999,1.969021714769744,1.0340335,3.455363,-5.231499,3.8384389381872994,301.17160502434143,2.1386495,-0.0011154653870850877,-0.7663706761515782,0.2288610655708303,0.17241827999999998,0.7843151486717707,0.563995,1.961766,-1.205929,0.63872681318982,52.2678114146738,1.08688175,-0.0006379235435210671,0.23559012411371005,-0.6631643807181256,0.05114190000000006,3.9237225032007945,2.978587,7.994985,-4.630743,15.244257793238681,1193.84024397065,7.3654585,-0.0010788078649480038,0.48874970321148864,-1.186299709055041,24.915202680000007,5.589879539999999,2.4792185032179965,jumping
6.06455021,10.776312283306556,7.337031,29.412468,-19.232023,151.74638661268133,14733.840215575638,15.571438749999999,-0.0004971968979244701,0.4027921572825313,-0.42546899856539966,-3.17392887,11.310256645322921,7.3491515,10.459669,-28.589611,136.71651080106008,11472.22595048606,18.59071375,-0.0006270975494875998,-0.660775948372298,-0.7964669733724041,-2.41938122,5.54946926248971,1.782483,11.427225,-23.179463,36.34204849205361,3324.904351570459,3.6328644999999997,-0.00157857884331416,-1.0980303028845553,2.413467488002639,0.23656545999999998,1.5718481609971071,0.9615085,3.455363,-4.039735,2.5019627916827,199.89584692678207,2.0055625,-0.00033136492553561354,-0.5702037830520171,0.3382107814876485,-0.0743995,0.6987504615467727,0.37002450000000003,1.961766,-1.525509,0.48890497103696,38.78361125351952,0.7212405,-0.0011598399896009435,0.4030426099090496,0.8030661235525236,0.10451431000000008,3.871382963443253,3.3448905,6.934259,-4.696111,14.84865323013705,1161.585290427147,7.473799,-0.0007826697890184666,0.31667619816095594,-1.4073041560108956,22.869164320000003,5.196438330000001,0.758655689401517,jumping
5.34195022,15.531863872248643,10.9245925,36.156036,-25.895087,267.3628395455599,23123.512513704558,21.3920795,-0.00015958659675203502,0.11048971816379219,-0.6633589208247699,-2.39528208,9.371519262206283,6.5250225,8.684368,-23.476045,92.68449579185348,7699.803603576619,18.106187,-0.0011270591594486246,-0.4473387063302239,-1.303442746687606,-1.7537901400000004,3.50196521824597,1.8356045,5.006874,-13.024457,15.216902641067723,1437.6590955136874,3.7398552499999997,-0.0014675110630516038,-0.8303576348337887,0.9396816238988128,0.26163013999999996,1.3339575606998766,0.8774639999999999,2.47998,-3.153758,1.8300986761673,148.4816268017899,1.77155125,-0.0006957145319181742,-0.6133196055448012,-0.14489339501895993,0.06938776000000002,1.0723490726853895,0.4893155,2.492684,-2.67577,1.14324786959014,89.85696324649324,0.8781727500000001,-0.0008631174515402163,-0.08140413941767258,0.23916757694303348,-0.15281916999999995,3.803762657052441,2.953999,6.934259,-5.329741,14.34727794639427,1122.7760051693097,6.5144665,-0.0003817676399159794,0.39819958594936167,-1.1355845372902504,24.274131220000005,5.189674129999999,0.6611013694550484,jumping
3.7560908799999986,17.523141835301416,11.4566295,43.844117,-25.895087,318.098113481109,25974.910292332224,22.733057,-0.0009038966576258149,0.5382756391062514,-0.5520288267621472,-1.4462324800000002,9.248005313432522,7.7949965,17.950976,-18.410513,86.76193464071036,6946.700043402768,15.629311249999999,-0.0008792544929891322,0.10098936867772192,-0.9575159142327774,-2.11657452,3.95286974885681,3.036297,6.430526,-10.69849,19.94881515762626,1910.3282911159586,6.095451000000001,-0.0003667990554862393,-0.12123448411034564,-0.7579836344201518,-0.10871488999999998,1.6078570172370117,1.243678,2.47998,-3.235498,2.57117107330723,201.86021826753782,2.51707275,-0.00026136484857146205,-0.21868315594713963,-0.987709932911264,0.49395532,1.1791425493188428,0.6612020000000001,2.492684,-2.67577,1.6204652382542997,146.02198846950478,1.4971375,-0.0006528130870719513,-0.6755198184814036,-0.01724306436144918,0.20071437000000003,3.9630419545171085,2.8249895,7.980015,-5.329741,15.58893077625465,1221.2444544568114,6.178342000000001,-0.00019937108749832827,0.5381920870537156,-0.9355976353057627,25.77613064,5.751848039999999,2.246433130676042,jumping
3.4720817100000003,12.522489404436307,3.093009,43.844117,-17.468844,167.29996487629379,14030.516913740681,8.4278895,-0.0009002162663838991,1.3312744901234916,2.2813318330254084,-4.41077188,7.910288984809978,1.3217494999999984,17.950976,-11.686547,81.40185368237276,7880.444264826865,8.765209500000001,-0.0003846608609423379,1.474516900253615,1.0513603250009291,-1.5080223200000002,3.975810490513046,2.7204119999999996,6.430526,-10.69849,17.923129683527037,1578.0760432362124,5.69000725,-0.00020267317791345686,-0.41849859716132654,-0.7114157213974712,-0.030067000000000014,1.4174209472828463,0.9555495,2.266842,-3.235498,1.9898953448672396,155.60408309765765,2.0323997499999997,-0.0005222928217323808,-0.5370365813618372,-0.4297281732767968,0.77915864,1.2145021441250956,0.6514300000000001,3.821099,-1.193141,2.06735348979026,209.06065329784283,1.3092295,-0.0004571290784273326,0.6080729705439684,-0.16451051426764085,0.41466364999999994,3.056043324153187,0.788894,7.980015,-3.877628,9.417952733741572,749.2306584369536,1.3369235,-0.00013087943318291855,1.021967401292689,0.5930722821923715,20.243567570000003,4.255997009999999,2.517783201791396,jumping
2.3648397899999996,18.01202261478256,4.084807,39.994391,-37.642087,326.7810963210513,25968.093023546393,7.8652145,-0.0002619469724809408,-0.2822251648733911,0.3099356901289321,0.18097921999999986,10.14241166914363,8.201637,21.818659,-13.812598,101.87258279978893,7966.392843000827,14.17640475,-0.0007401331787024887,0.5177556756061761,-0.7466902837039564,-1.8126830099999998,3.9733357441089634,1.8156275,9.734824,-13.879636,18.91534266080245,1734.897011474612,3.6919712500000004,-0.00020227107406908004,-0.17495601569955666,1.9762857934248474,0.79892109,1.5982121863303416,0.7916399999999999,3.51097,-4.995168,3.16701427865625,297.7033599656507,1.782835,-0.0007543865874574695,-1.1930352199823753,2.7255472944881367,-1.2567483899999998,1.8229456643169197,1.3635225,3.096567,-4.406319,4.86931610186893,503.85375931736655,2.5634505,-0.00019693341840423646,0.42208455730550115,-0.6274528975407092,-0.5306306700000002,3.8691699014034215,0.8739965000000001,11.85611,-5.051346,15.102339876611547,1203.2561510532,2.90181875,-0.0007268108231782649,1.69608242651302,2.148126961608762,24.039399199999995,6.310245650000001,0.9812675649192054,jumping
6.31694698,29.432340571727888,22.642937500000002,76.31832,-41.256733,897.5038639630086,73321.15640901079,44.481835000000004,-0.0007966029681300787,0.25114066758360737,-0.5628444701605648,5.7321272599999995,7.1047016701656025,4.0828615,21.818659,-6.099977,82.82930088866847,9038.477960856906,9.94701,-0.00010513100823065251,0.589938296285451,-0.4367710546071635,-1.1936801199999998,5.9116494113187965,3.1001915,13.491177,-14.150031,36.02299500360562,2927.766206217262,5.8314520000000005,-0.0005297764707240279,0.025668378891374605,0.006907978166539319,0.23770563,1.9371416306094387,1.311904,3.193634,-4.995168,3.771496486603491,299.108331713507,2.4857815,-0.0002821610862051476,-0.4584490071188306,-0.18331928001303766,-0.012189520000000011,1.3470143138428654,0.9241405,3.096567,-3.717482,1.7964516704784201,140.49599009890414,1.8325455000000002,-0.0004977895279410114,-0.002271449702023836,-0.07719265467198033,0.20731237000000002,4.8611548781091445,3.5478220000000005,11.85611,-6.818782,23.43749690022971,1834.9905914402977,7.18047825,-0.0004646980870246133,0.62612619489909,-0.6934840680464269,36.4000953,6.73901282,1.1200996243656476,jumping
10.781515069999998,30.04270357785498,23.075615,76.31832,-41.256733,1009.7794650888293,88073.95639365092,47.246950999999996,-0.0008871887883901333,0.2021025425459643,-0.8541198164626498,0.69459232,5.650630993282858,3.568857,16.869844,-10.178051,32.092792807029326,2548.101184961076,7.95828825,-0.00040886412821890765,0.5642495071140724,0.5187548109090905,-0.07315177999999993,5.431081279785585,2.332551,13.491177,-14.150031,29.2070286118782,2285.870384239391,4.48415275,-0.0007698541293145967,-0.4358145528880575,0.5451201100147376,0.36189347999999993,2.0229196823210778,1.776209,3.929881,-3.404804,4.1822488915772995,338.15862748747935,3.4313200000000004,-0.001011779414426332,0.10348754609850151,-1.1760971463925145,-0.009784699999999993,1.0569917872485666,0.67964,2.346514,-2.101552,1.1061550622818999,86.45079528766829,1.4497925,-9.545552127626295e-05,0.3742529792013923,-0.5250930485669048,-0.10702115000000002,4.009805891726578,3.1954275,7.747072,-6.818782,15.929211382979249,1249.2520891607005,6.785684249999999,-0.0011545318966903154,0.2541131364995582,-1.1068750168508166,34.48287103,6.075078989999998,0.2947565946861883,jumping
10.307008249999999,27.35657374398267,23.406762999999998,61.887419,-32.849794,847.1327248054304,74635.6984907379,47.503542249999995,-0.0009541746086730728,0.18289695363052416,-1.158627376943941,-1.01808484,4.2530694229411425,3.1239095,8.114249,-10.178051,18.94421026263116,1564.4049455822465,6.0606595,-0.0005768616026909587,0.09843881203680388,-0.6218954267028574,-0.14390341000000006,4.821926761011262,2.421735,10.671106,-11.064204,23.03917610308063,1803.1984760080895,4.53211175,-0.00032467852867860676,-0.37044108091061956,-0.12050689566895478,-0.10317313,1.9043449553290828,1.2609965,3.929881,-3.54504,3.60090910655245,282.39365544878956,2.98451625,-0.0005346483390772932,0.3853038755152803,-0.8024748930918344,-0.039279199999999986,1.0438641061749776,0.561108,3.085423,-1.813632,1.08029860499152,84.7025568861436,1.1819834999999999,-0.0009404921101142314,0.900848005135483,0.4548067911949949,0.44516851,3.516357896774596,3.5083275,7.130198,-4.515646,12.43930013192259,988.7710436364736,6.8880735,-0.0009322764566486517,0.125163813468194,-1.3830415682704256,31.446209279999998,5.62481816,1.8017479541355392,jumping
5.274324560000001,26.69397291258874,19.686546999999997,61.887419,-33.118692,733.2610075236609,59706.62367724929,42.792426250000005,-0.0012043935522509557,0.44395572839454794,-0.8972529979622768,0.30427609999999977,7.360634474956788,4.150648,14.738556,-23.039403,53.729734420214385,4214.435539085291,8.18921725,-0.0006524945806742473,-0.4691347125230118,1.1684214664386987,-1.29303495,6.313245937261249,3.4882020000000002,10.671106,-22.191257,41.13044290362371,3369.150268770097,8.03247225,-0.0011445091607110418,-0.8065829692724511,0.8597446571252747,-0.42977081,2.1205993203095646,1.592866,2.729428,-6.165699,4.6366750116524695,377.8359473444584,3.28518425,-0.0010109591689076722,-0.39059114112470394,-0.36085083363684944,-0.04712818999999999,0.9631054626975452,0.4721295,3.085423,-1.493747,0.9205174772477501,72.29924626576982,0.9602072500000001,-0.0009308794144026024,1.0579468498517368,1.0930884916106098,0.42957084,4.368717248743943,3.543642,10.200265,-4.515646,19.079364602056415,1506.448133397053,7.8576742500000005,-0.0006767905534056852,0.4765873599226862,-1.0550924466727092,32.51751877,6.41039314,2.5976719510859807,jumping
2.0919741300000005,22.45082835548168,15.74023,49.779044,-33.118692,503.3756526694167,39670.7586322681,33.3456555,-0.00021889718546437909,0.47864976746612764,-0.7800744580428938,-1.4026744900000003,9.55454907073028,6.4662895,14.738556,-23.039403,92.3440095904397,7368.634281143211,13.0404675,-0.0001159126994430411,-0.4374299120646329,-0.46179688197356894,-3.05987798,6.521064474203241,3.3135005,8.280346,-22.191257,51.4618923104373,4752.451283246807,7.3927335,-4.532133260610278e-06,-0.994615083384021,0.7580163337218737,-0.22835611999999997,2.2344542721794323,1.270174,2.990381,-6.513221,4.99500455305776,395.29394527083963,2.51670325,-0.0009365717430410416,-1.09722184479984,0.7377826229168893,0.05945832,0.8736709797393667,0.4565035,2.465053,-1.493747,0.75920326284758,59.773579818242126,0.91484975,-0.000752978335815193,0.6543327423953076,0.41195591227339534,0.15808845000000002,4.343499167015052,2.2989755,10.200265,-4.405327,18.702317121745253,1468.156746481811,7.213749,-0.0012011414941333223,0.7660331741290756,-0.7378137700281573,31.148885359999998,6.031828590000001,2.760356209575513,jumping
3.6287178400000006,17.754582433291507,12.0350535,37.151575,-25.70385,325.2405385690724,26464.61509988841,27.083845249999996,-0.0008512647514294931,0.5169332332217519,-0.9568471156442486,-2.633912139999999,8.582723715651387,6.491204,8.137592,-22.186319,79.86400807665206,6800.694438969927,14.194099500000002,-0.0011124599489889908,-0.571738061744049,-0.7877470864880971,-1.9694478100000001,6.015212232323051,2.331728,8.506299,-20.600459,39.69967509420377,3414.33841729932,4.85652575,-0.0009861596067390686,-1.3630615653453892,1.8936928408688862,0.32675842000000005,2.108664861946943,1.0559465000000001,3.603221,-6.513221,4.50877389005052,361.1327957371533,2.0885005,-0.0005206135294407466,-1.147562821890308,1.474186674070575,0.23572907000000004,1.1013323962617652,0.6706030000000001,2.979777,-2.165272,1.2563719110281901,102.67036229060213,1.3307145,-0.00048018090425686494,0.29327151332967455,-0.1452893583592707,-0.020630199999999974,3.698306475311235,2.58427,8.193433,-4.477318,13.54112168262776,1057.9476847850447,6.57323525,-2.4870941569745323e-05,0.6179371247982821,-0.9094365229515238,26.138249169999998,5.621496630000001,1.259347955820571,jumping
4.829980099999999,16.882650430865002,11.170895999999999,41.837178,-21.286697,305.50235448147447,25706.553800614012,23.13277625,-0.0006425624327594699,0.5910123454774663,-0.6912306240504251,-2.8599457,6.262574393403774,4.048146,6.954857,-19.288437,47.006929059535985,4313.892729268101,8.36197325,-0.0005424830860620793,-0.4125810470733778,-0.28564014681298033,-1.41888316,4.758783225860561,2.360608,8.506299,-19.470695,24.432787034556117,2066.7429267540692,4.81331775,-5.631133133513053e-05,-1.1916428762220568,2.909268466940892,0.32091873,1.7247195823769508,1.070116,3.603221,-4.495668,3.04789989272099,246.3438613477334,2.13298375,-0.0003488759692614081,-0.3354828383399564,0.06951276957559926,0.014477069999999976,1.5036801790612462,1.0702175,4.017902,-2.414534,2.2386531256484306,175.1730148144986,2.23435425,-0.0003447395055948224,0.5602512278963564,-0.28194061535632375,0.16688319999999998,3.075157583222861,1.5449804999999999,6.33522,-4.477318,9.38987822247878,736.0985628563753,4.2985975,-0.00023171651646488657,0.5255281011472748,-0.7573586681122673,22.66780154,5.1434425,0.9187485887878806,jumping
4.91746576,15.94093161637421,9.406967999999999,41.837178,-21.286697,275.75363729071205,23446.672750602644,19.781381,-0.00032675063325647645,0.6544603529978126,-0.3656861910589839,-4.94654036,6.622987503003817,4.189778500000001,3.480571,-23.760656,67.89358536340421,7217.634363491779,8.34959125,-0.0003064048154584986,-1.0150761745883894,0.5691513073903334,-1.22937461,3.92384263935991,2.442385,6.926874,-12.595895,16.75393757958701,1428.7856477464613,5.049521,-0.0002769900997220268,-0.5322133703484488,0.19710267199463338,-0.03668339999999999,1.4411418448191309,0.9964305,2.486027,-3.857041,2.05746659055536,160.94595002375772,1.948664,-0.00010350220219516691,-0.3819625696740448,-0.19849985759676825,-0.08438186,1.3468916688641361,0.8115995,4.017902,-2.414534,1.8030962942761204,141.5914566480237,1.7466659999999998,-9.44508528976943e-05,0.7764658311345706,0.5486264756660599,0.04239122999999998,2.1395779142054847,1.125631,6.33522,-2.490357,4.5338127308272504,354.38172686588405,2.9066395,-0.00028161250495505085,1.1255646099611203,0.6516682271043392,21.48774151,3.96910691,1.310162330056822,jumping
