mean_acceleration_x,std_acceleration_x,mad_acceleration_x,max_acceleration_x,min_acceleration_x,energy_acceleration_x,bandsEnergy_acceleration_x,iqr_acceleration_x,meanFreq_acceleration_x,skewness_acceleration_x,kurtosis_acceleration_x,mean_acceleration_y,std_acceleration_y,mad_acceleration_y,max_acceleration_y,min_acceleration_y,energy_acceleration_y,bandsEnergy_acceleration_y,iqr_acceleration_y,meanFreq_acceleration_y,skewness_acceleration_y,kurtosis_acceleration_y,mean_acceleration_z,std_acceleration_z,mad_acceleration_z,max_acceleration_z,min_acceleration_z,energy_acceleration_z,bandsEnergy_acceleration_z,iqr_acceleration_z,meanFreq_acceleration_z,skewness_acceleration_z,kurtosis_acceleration_z,mean_gyro_x,std_gyro_x,mad_gyro_x,max_gyro_x,min_gyro_x,energy_gyro_x,bandsEnergy_gyro_x,iqr_gyro_x,meanFreq_gyro_x,skewness_gyro_x,kurtosis_gyro_x,mean_gyro_y,std_gyro_y,mad_gyro_y,max_gyro_y,min_gyro_y,energy_gyro_y,bandsEnergy_gyro_y,iqr_gyro_y,meanFreq_gyro_y,skewness_gyro_y,kurtosis_gyro_y,mean_gyro_z,std_gyro_z,mad_gyro_z,max_gyro_z,min_gyro_z,energy_gyro_z,bandsEnergy_gyro_z,iqr_gyro_z,meanFreq_gyro_z,skewness_gyro_z,kurtosis_gyro_z,sma_acc,sma_gyro,angle_acc_gyro,label
6.138950010000001,8.632286596564757,1.9315970000000005,20.833595,-21.779753,111.45791539165825,11697.581073469817,4.225466499999999,-0.0013637935231622176,-1.4948861322024232,3.2246632542880516,0.70836801,6.88780912531387,5.7764605,14.506468,-11.713033,47.46928063888081,3749.205967789228,10.89541275,-0.0005130005297554205,0.30380591236999066,-0.8705000842320532,-0.6871119400000001,1.4263334587012402,0.7315785,1.4039,-6.873753,2.4862056821471,234.32945314270705,1.38051875,-0.0017496369340532791,-1.7507174047304028,4.575992220203931,0.25001358,0.6861177218934564,0.3772195,1.417892,-1.379943,0.52855674319772,46.178216788404406,0.9874482499999999,-0.0001587027642147019,-0.5060938658145203,-0.5285821778842776,-0.4700567299999999,0.5324676239151594,0.458955,0.442339,-1.53804,0.5016398822309699,56.455772836502774,0.9036865000000001,-0.00018012510445555553,-0.07377544973235535,-1.15659670903798,1.2463688899999998,3.8281936230121603,2.1814679999999997,9.282599,-3.050884,16.06195116107809,1376.8535216018226,6.919084000000001,-0.0006680611326555686,0.6381208033663475,-1.0633978585386081,15.976773940000003,4.369280379999999,1.5297916131343046,shaking_fb
0.8461273299999997,12.164219514757345,8.1948285,20.833595,-21.779753,147.20448549774437,11557.659473740598,18.77944475,-0.00035325073291689915,-0.34622743990433885,-0.9312560947366282,0.20590737000000012,7.750100442451222,5.699173,14.506468,-13.651439,59.50581414442211,4652.5497204907415,10.87932675,-0.00044860410065120624,-0.04437943187053378,-0.859051518295654,-1.6743370599999998,2.3490674398985547,1.3563905000000003,1.4039,-9.086594,8.26634124930908,865.8256984517869,2.4658782500000003,-0.001128395570607194,-1.2155128434320344,1.1586632354891515,0.15445407,0.5281613106375254,0.2848585,0.889561,-1.379943,0.30002088609337,25.36904358465348,0.5420517499999999,-0.0011858055789426213,-1.1039489469472448,0.5844707974359911,0.06175285000000001,0.6977488975877039,0.47977650000000005,1.40693,-1.414397,0.48579840332713,38.27822771547468,0.956375,-0.0003991767624473283,0.09038392304364752,-0.6984039204952728,0.38653038,4.7051060704436205,3.7080594999999996,9.282599,-5.289748,22.066048637447096,1735.6963850233858,8.8868765,-0.0002964326787153863,0.3512577390262659,-1.335581592757791,18.7766058,5.22482716,2.2579665008342222,shaking_fb
1.8334303000000003,12.782244258382686,9.549647499999999,24.278103,-20.871303,165.11337726310575,13163.505414553149,20.2279735,-0.00035585464530922306,-0.15168337836513207,-1.0126788151391493,-0.2902505099999999,6.604202549330691,4.102539,10.618434,-13.651439,43.263581758015405,3387.7298620999322,8.873846499999999,-0.0002848330161026942,-0.4183238313307737,-0.7784531107941732,-1.3428522999999999,2.2489663076875357,1.077466,1.57329,-9.086594,6.8105232581978585,675.5327984925673,2.3883655,-0.0001536533107714066,-1.5708844986827655,2.2623321106857297,0.3281633,0.4903423741827559,0.24200999999999998,1.31493,-1.368539,0.34572243894688,35.62108473969294,0.49997325000000004,-0.0015930949868820906,-0.9173914092771438,1.9491279106825496,0.061487559999999976,0.8597109397962079,0.649653,1.566244,-2.566147,0.73549259103998,58.36155710139511,1.22510975,-0.0012982322295055366,-0.3823768633062376,-0.2629922766374557,0.12472214999999992,4.576768479039944,3.3998285,8.409081,-5.289748,20.752897228326887,1622.550049125262,8.123195249999998,-1.6281519555972994e-05,0.40003225341136955,-1.3121750738584008,18.220663230000003,5.274325369999999,1.0357666375732313,shaking_fb
1.2531206799999999,13.811248639567012,11.366622,24.278103,-23.08998,190.41339453274594,14999.618163913749,23.57794875,-0.00026486370794007207,-0.16475358516324154,-1.130439273849506,-0.13265521000000002,6.548233335078812,4.1842415,10.618434,-13.392865,42.468163617271166,3319.347229800682,9.173496,-0.00020401816209767264,-0.4034483682711436,-0.8249270422079182,-0.81426197,1.5816390115913892,1.1323075,2.598457,-4.570681,3.13958869914619,297.48670821582505,2.3439235000000003,-0.000374593300925919,-0.37945477009180195,-0.5103908859437829,0.15511206000000005,0.6098496969590183,0.321681,1.489336,-1.368539,0.39225723750964003,32.53378401110359,0.616362,-0.000289836857631236,-0.07189341123105844,-0.13228084344432256,-0.030547880000000013,0.9892150366518938,0.7433085,1.619817,-2.921294,0.9696940978233201,75.86725389489933,1.4358115,-0.00041514951572973796,-0.4662643307856532,0.09138166521161706,0.04810656999999998,4.702872137862574,3.9436665,8.409081,-5.931533,21.898150523710413,1711.017811155977,8.2362985,-0.0002015271793081181,0.3261746886368375,-1.3186126362225956,18.9313925,5.4913392299999995,0.8732314729081034,shaking_fb
-0.20187313000000015,14.477860016846286,13.237242,22.481254,-25.481339,207.55309912133842,16219.218418594231,26.492514749999998,-0.0002888595305682753,-0.1551224193561208,-1.2663902280139152,-1.10372694,6.483675736935607,4.965275,7.767089,-13.392865,42.83588370919196,3442.19326936912,12.184765500000001,-0.00035819795508818593,-0.39727191804216627,-1.215554515906504,-1.6515293200000005,2.0608300732907385,1.2448350000000001,2.598457,-7.009923,6.9320994798893825,755.5460330976869,2.40766875,-0.0005542423336371296,-0.29006912492112175,-0.30453397133884286,-0.07708542,0.6629620164155876,0.29422000000000004,1.489336,-2.334077,0.4410656108343,34.93881312056065,0.62092675,-0.00036444199800330073,-0.7984721137351006,2.052566821066237,-0.027179540000000016,1.1082415588233463,0.5840605,1.619817,-2.921294,1.21665608657078,95.35463993239192,1.15707725,-0.0008109889668328443,-1.0668062910962635,0.8054438484516075,-0.004131249999999912,4.587956336462063,3.7373155,8.957351,-5.931533,20.838866979056135,1628.4853662994065,7.971522,-0.0005982846047502614,0.37293264197407294,-1.1436252834729692,20.296623149999995,5.26279185,1.2444644929139388,shaking_fb
0.9633863400000002,12.819593896443502,11.0425065,22.481254,-25.481339,163.62668103313277,12856.426895636454,21.138219999999997,-0.0002037010512761379,-0.14562038798087176,-1.0297011236927578,-1.7084035499999999,6.226317021721078,5.579537500000001,7.767089,-12.341212,41.29799610807651,3455.1497375901213,10.81112975,-0.0005058027206751488,-0.11907879795199694,-1.2780081086415718,-1.9007851400000002,1.9417341184873276,1.189619,2.066046,-7.009923,7.345612221473601,856.5470402643931,2.6440965,-0.0006686558676746679,-0.43427865980498465,-0.39697919472539267,-0.02996819000000001,0.5888181332351435,0.2786435,0.964194,-2.334077,0.3441378184981301,26.97356665505102,0.545899,-0.00046087268727323103,-1.654275046011861,4.182312523553999,0.22251077999999996,1.0175403729383057,0.34210149999999995,1.910428,-2.789805,1.0745455736700398,87.91823368275047,0.743329,-0.0005114518304964658,-1.4426700486472634,2.356130279870973,0.2044212700000001,4.224118940356172,2.867027,8.957351,-4.666416,17.706537069681406,1386.6003548873011,7.37397925,-0.00010570888696014517,0.5983100252487501,-0.982040069944119,18.58006437,4.76544948,2.8640034433737878,shaking_fb
1.9684362700000007,12.01175056137311,9.952023,21.307048,-21.125238,146.7140713822122,11765.31729614089,21.32167525,-0.00010002040533752965,-0.12126315512498066,-1.1621662843136942,-2.4316126,5.307335956837087,3.765705,5.251382,-12.341212,33.79887664562726,3102.624796909281,8.527099,-1.1018344278051505e-05,-0.4270822508709156,-1.111198772514218,-1.5430390500000002,2.0131542041350765,0.6753894999999999,0.725144,-9.605387,6.39323146095537,686.0804661195942,1.7493002500000001,-0.00046292071854862454,-2.0598636456791537,4.877118311663755,-0.021520170000000012,0.6445980768001449,0.2669255,0.792335,-2.659409,0.41181473152512993,32.213710628544355,0.6499155,-3.68758977391592e-05,-2.1381208172483284,5.6719339797682995,0.21450438,0.931188536219547,0.572208,1.910428,-2.902363,0.9044530981260199,74.3076130354649,1.0322455,-0.00041220517326030526,-0.8402199001846394,1.5536451393548711,-0.07802444000000017,3.877844474756741,2.8701389999999996,7.579844,-4.666416,14.893388805934679,1164.0638651794047,6.7491217500000005,-0.00030492015441671664,0.5134814966301354,-1.092551982551826,16.869479119999998,4.56483005,2.158697650376957,shaking_fb
2.0175263600000006,12.205085587483351,10.2779335,21.307048,-21.125238,151.54488566911078,12158.083198178036,20.53940725,-1.2697638603487713e-05,-0.17453165487524752,-1.1247750364717586,-2.2955336500000003,5.614915151665108,3.3220295,5.251382,-12.966248,36.48147417707673,3261.9600978056105,9.01555325,-0.0001432942673596945,-0.5710260078014731,-1.0558289454422591,-1.8853769500000002,2.3945493128615465,0.7685385,0.725144,-9.605387,9.23117399119975,998.9688295840717,2.71105875,-0.00022021203579147418,-1.4208253384160636,1.3081565628056886,0.09917855999999999,0.6639392069076184,0.271656,0.805745,-2.659409,0.44624350452809997,35.63582906448203,0.53053825,-0.0002537232808407518,-2.3872115460605334,6.359996054709523,0.16878987,0.9023079281826498,0.5968705,1.730571,-2.902363,0.8345080215032701,67.43376456438631,1.147577,-0.0001675909663739263,-1.0214941825121764,1.6145230274213809,-0.029430889999999935,3.8690569638008117,2.8674910000000002,7.579844,-4.786476,14.82077194853039,1157.9829951916738,6.72573925,-0.000308393676593708,0.4883828616327508,-1.1112712546363779,17.34115032,4.57721678,1.757388924329578,shaking_fb
3.0223563700000007,11.695279153530581,9.5747865,24.961797,-19.153314,144.54639696149647,12006.823173268269,19.54401825,-0.00016660302181189274,-0.11395712644181444,-0.9714272658078342,-1.5926438900000002,5.510739288915672,2.9582604999999997,6.598869,-12.966248,32.601079595649175,2746.1328266665696,7.5662385,-0.0006202389642356967,-0.6627213667929436,-0.6647745496587638,-1.28953947,2.8316215997353797,1.442731,2.543091,-10.879252,9.60081211993495,880.1156635820499,3.65935,-0.00026967080455328333,-1.249707411952944,1.2590200227039547,0.01378738999999999,0.9201162482077672,0.280713,0.974929,-3.426194,0.8383378632367899,65.78837085914427,0.5577662499999999,-0.001195892469198187,-2.107387903607979,4.232659830042298,0.22390136000000002,0.6525427357369794,0.49862149999999994,1.458103,-1.430103,0.47168572075332,40.94422738882604,0.969084,-0.0010973291800931693,-0.19903198287969048,-0.6322364308323949,0.042257159999999946,4.004353381824951,2.4805,7.032902,-4.786476,15.87628321403886,1240.8742629373828,7.657562,-0.0006344841924017084,0.4671075178907407,-1.3129700616841216,16.63977785,4.7634265099999995,2.02994499141517,shaking_fb
1.8280163800000004,12.52183940786048,9.756671,24.961797,-20.849007,158.57014142023345,12649.607211210636,20.551565,-0.00012632171209178255,-0.12365268850231016,-0.9739649844459177,-1.60733825,5.244648635372522,3.0875475000000003,6.598869,-11.505785,29.814812165342772,2531.178298500667,8.046425249999999,-0.00015968141792215823,-0.4438788106899918,-1.0062410970003275,-1.66801938,3.4930498703714474,1.498022,2.543091,-10.879252,14.861672074988537,1378.4843002723253,3.403246,-5.960613505331052e-05,-1.3245366308822866,0.6945149807149202,0.10368067999999997,1.0202104652190758,0.3562845,1.891448,-3.426194,1.0411707828143602,82.1839254728752,0.7557130000000001,-8.927717978254427e-05,-1.5794833223113864,2.7308546177882027,0.11247475,1.030969221182771,0.5613425000000001,2.071797,-3.396798,1.06491912906351,84.21679040316337,1.1057545000000002,-0.0003181993563273035,-0.9333987356816914,1.9345760230204885,0.050661020000000064,4.091292621567782,3.3025145,7.032902,-5.03296,16.57385510108946,1295.0399440981557,7.600812,-8.155523016311303e-05,0.3748573908545581,-1.3501110798804616,17.52150243,5.1762942899999995,1.7308004634832796,shaking_fb
2.3652408099999995,12.588372008660267,9.3994115,23.212683,-21.207389,162.47680281942658,13133.675699026924,19.27568025,-0.00024439972916256303,-0.21510567238163106,-0.963554729705455,-1.3020955500000002,5.359729875045215,3.0346505,6.552481,-11.505785,30.134890111447472,2487.1680206722085,7.473874,-0.000656063437938898,-0.4938043969747842,-0.9794860250218522,-1.3813271900000001,3.319787454728243,1.628506,3.004723,-10.157101,12.818843662958606,1151.9113630120962,3.8290395000000004,-0.0013792993618473265,-1.2516698019260357,0.7214349040636452,0.024784010000000037,0.9271183967086001,0.476524,1.891448,-2.494159,0.85156728345205,66.61249584312621,0.9888379999999999,-0.0006797457758858337,-1.0242682742669107,1.1924404155129436,0.10336103000000003,1.0757202731378483,0.6765745,2.071797,-3.396798,1.1562858675020302,91.31499209986532,1.3104442500000002,-0.0007164580230211203,-0.779540341064084,1.2164619414781503,-0.023352520000000085,4.094670898601127,3.1744485,7.628944,-5.03296,16.599211810362796,1296.8609724820744,7.26159,-0.00010739364923015363,0.4422578790704873,-1.243047923107299,17.71129083,5.17014344,1.7036168872348934,shaking_fb
2.1257413000000005,12.996361577056925,9.833884,23.212683,-23.346459,171.73513617371123,13772.061146773687,20.052112,-0.0005788390165466134,-0.30078925730201567,-0.8885999501103354,-1.3524246899999997,5.073875388304302,3.212644,6.552481,-11.059566,27.31582188360133,2277.429639834302,7.921665,-0.00048439204454009486,-0.3548262038845078,-0.9709302301994436,-1.4501619799999999,3.5145295994365364,1.3870660000000001,3.004723,-12.433987,14.3313688904999,1286.3895425507499,5.101969,-0.0018680667194917375,-1.2512650859747638,0.8785504731955807,0.03168328000000001,0.9766780470586635,0.5127675,1.879677,-2.494159,0.94536483776182,74.02783423753768,1.0455212500000002,-0.0011235286219665388,-0.9144338283274869,0.661207091557888,0.08527321,1.104907677266947,0.7335425,2.121121,-3.736184,1.21588428587431,95.61564726209625,1.40887025,-0.0003643072861253733,-0.9223890982880009,1.5695599183673128,0.07876891999999985,4.023439038705016,2.9884020000000002,7.628944,-4.532237,16.03238562395176,1253.1558021050494,7.33476875,-0.0006138731468268676,0.46498466421951684,-1.2739811799927263,17.944881109999997,5.188888290000001,2.05295077842805,shaking_fb
3.3300022700000005,12.132392045539575,8.576704,17.557878,-23.346459,156.81190249741041,13137.222523460781,18.487426499999998,-0.0010365240862899654,-0.6894227269930024,-0.6649045786912842,-2.3025216900000003,4.103404392325339,1.9454385,2.662951,-11.059566,21.971154463805792,2133.165411952984,6.353613,-0.0010088170494522433,-0.7714081793362272,-0.7231999285992567,-1.3654476299999998,3.3845899763509983,1.0949735,2.98108,-12.433987,13.205342045208111,1183.784220664053,3.72100075,-0.0015408880979713823,-1.4525922346878024,1.5603161821447227,0.26303413,0.650433551279835,0.311539,1.879677,-1.657764,0.48802012012905005,43.57380945473177,0.7241785,-0.0006547581639885484,-0.38376233547824157,1.2280302146688884,0.15650551000000001,1.0482812436662283,0.5301425,2.121121,-3.736184,1.11239860482455,89.14211850323814,0.960418,-0.0010452031912815702,-1.2826297815457128,2.834852806248855,-0.3362648300000001,3.563911447269724,2.914937,6.79669,-4.532237,12.68752419183531,1001.0109300400878,6.3266865,-0.00114166867823053,0.5331217968702097,-1.0247854890046544,16.59314181,4.411770929999999,1.0452229307794365,shaking_fb
1.51101206,12.169530359321216,11.353753000000001,17.557878,-18.777724,148.8996519202418,11815.59763408622,22.58888125,-0.0006809992546786566,-0.14961747457195765,-1.3936279616409275,-2.8149900699999995,4.288234133418633,2.7112834999999995,2.662951,-10.786178,26.129231557385094,2660.5918621827745,6.779406750000001,-0.0001680888355848832,-0.5191139722962516,-1.1115568779098386,-1.4166850199999999,2.830117421463793,1.68058,2.98108,-8.753501,9.93646541897254,933.1767596722833,3.9667062499999997,-0.0003478175434872175,-0.8787341938728862,0.17075072045110407,-0.0064747300000000075,0.7056846123809914,0.31310650000000007,0.837803,-2.199515,0.49305278655837,38.52588963808959,0.5905795,-0.00019065006459306476,-1.5669870689866203,1.9356382470318891,0.04947521999999999,0.7099556015597825,0.36090500000000003,1.241779,-2.223476,0.5014443840182999,39.37675913813339,0.7614164999999999,-0.00038683293544221494,-1.0774935183021233,1.2206462057802003,0.39954496,3.6499440992659378,3.102792,6.79669,-4.776243,13.34850718354998,1055.5770742627649,6.01850525,-0.0005790440911812242,0.24611932305134818,-1.2104403310862202,16.91653709,4.16477811,2.1038383475625744,shaking_fb
1.9129341800000004,12.435626639172998,11.9386115,19.673754,-18.777724,156.75767898683233,12535.990161406697,23.0882225,-0.0005552215565138131,-0.14401288535282164,-1.3455353470116427,-2.50467165,4.519365276274158,2.770241,2.347814,-10.786178,26.49379594970239,2559.98708691803,7.721375,-0.0001567516663114354,-0.5277785547860863,-1.2200538704987307,-1.04035242,3.227974478000635,2.0299840000000002,4.053383,-8.753501,11.397954196117098,975.1781083857314,4.27417375,-0.00038348680673496864,-0.514667436282231,-0.24973356287567983,-0.09264881000000001,0.7401961602973657,0.36336999999999997,0.837803,-2.199515,0.55099525415619,43.730849367818806,1.100071,-0.0004016997431814494,-1.086897467372829,0.480655160248713,0.028953650000000018,0.8191210811637287,0.5501095,1.241779,-2.223476,0.6650880659990901,52.03309537925108,1.17366175,-0.0002627148128957337,-0.709864777700508,-0.23028505714005476,-0.392711,3.538086104155375,2.848466,6.715021,-4.776243,12.54709467713418,992.3251463433105,6.1830355,-0.00022063212554255252,0.46073682219630996,-1.1115097322048544,17.67669755,4.3774188800000005,1.4522342838464144,shaking_fb
1.5099885199999994,13.071423119774263,11.439271,19.673754,-20.772094,171.43354668293927,13571.851457665627,23.96723125,-2.9378683051797196e-06,-0.2449850234651461,-1.2609687483542042,-1.64555131,4.119586919967898,1.9139395000000001,2.347814,-10.283844,19.50912554110161,1735.9250255168272,6.4239795,-3.155780977228854e-05,-0.8442368754057816,-0.7620115020562879,-1.4311953400000004,4.032748254551169,2.024971,4.053383,-11.464036,18.14874800097736,1578.073321753601,4.1115545,-4.438997417814867e-05,-0.930207875947345,0.11809877170635197,-0.06582642,1.0083133762846295,0.6891809999999999,1.4862,-2.86428,1.01086202371658,79.32497135932505,1.371121,-0.000328312596375594,-0.6567783634272023,0.00011050261459333299,-0.15053886000000002,1.030504043575215,0.7342315,1.867864,-3.509765,1.07398114635672,85.72753903047855,1.3788365,-0.0004950818982438597,-0.8468133611215011,1.2941050777991796,0.13685474000000003,4.038367007267075,3.359344,7.08993,-5.680785,16.16405322438986,1264.3318593362892,7.3356665,-0.0003023841568005926,0.2515488029356492,-1.2941786196101954,17.72909767,5.14166116,1.6547149769680654,shaking_fb
1.3100278,13.144857105250585,11.152715500000001,23.120955,-20.772094,172.77556847105515,13632.575128664435,22.35671825,-8.966914263299958e-05,-0.1310781703514108,-1.150919052347745,-0.44896521,5.4093220083959,4.2426005,8.03105,-10.283844,29.169726704401434,2295.230865915667,8.190564,-0.00019675195422105677,-0.2586877844915726,-1.0389097713751765,-1.92844709,3.599167283376006,1.446322,2.168997,-11.464036,16.54337326131645,1583.1483420466743,3.4871169999999996,-6.679050879157678e-05,-1.242489462657984,0.5953409126716434,0.10395993000000002,1.0071334179805158,0.5218324999999999,1.4862,-2.86428,1.0149822114425902,80.16773293354561,1.11644225,-0.0004381739396927177,-1.0546864760912757,0.5732119290633721,-0.16432015999999997,0.9739555041777916,0.54786,1.867864,-3.509765,0.96610454585946,77.59317812163923,1.0724165,-0.00016596890686581178,-1.0401605208529332,2.147442390859066,-0.11031864999999996,4.369518989379437,3.7976540000000005,7.08993,-5.809089,18.91393944109985,1478.6142150161477,8.28677625,-8.560373374360557e-05,0.25029538854582417,-1.4321604882867058,18.45172762,5.4670651800000005,0.6494620366761169,shaking_fb
1.23913998,13.14565801330942,11.1218895,23.120955,-20.462942,172.61570924689175,13605.845949800954,22.8867345,-4.33851035416292e-05,-0.09669763124968467,-1.2142131214075516,-0.7755193699999999,6.0023876328404855,4.270358,8.03105,-12.671163,36.26980101517285,2880.913358803089,9.311611500000001,-7.178948781367778e-05,-0.449906613319202,-0.9163927666065383,-1.3529065399999995,2.6748639503421607,1.446322,2.168997,-8.344691,8.913704287286441,839.495203222533,3.1601964999999996,-8.8376562176437e-05,-1.0516759933706916,0.4493935858726883,0.10719282999999999,0.784400482301219,0.2886485,1.150618,-2.110347,0.62062157827145,49.39176997545359,0.9124615,-0.000297753874342071,-1.163837296703257,0.48949720421187237,-0.11168246000000001,0.8244803079250407,0.4062865,1.540917,-2.825794,0.6854430722462601,54.55801374191928,0.8055765,-0.0004738249340251494,-1.067482116291075,1.692505400233208,-0.07127917999999996,4.551812879638645,3.8875975,7.908482,-5.844757,20.51689120783328,1603.2800100315083,8.415873000000001,-3.747214785688488e-05,0.28867249682993207,-1.3641719099410334,18.39148361,5.32993441,0.3748874947750043,shaking_fb
1.1018160500000003,13.395912320220535,10.149395,26.749817,-20.462942,178.86996083016354,14069.283588122511,21.435997999999998,-0.0001240196522237117,0.09044796786453745,-0.9541426354958458,-0.9957231,5.881879663750902,3.7547065,9.020604,-12.671163,35.242007786931566,2830.8485820058095,7.931615750000001,-0.00013278167234736924,-0.3651856008148654,-0.7234514828112992,-1.5155461300000002,2.497559589894688,1.0574145000000001,1.438616,-8.344691,8.472305938182151,841.5928657674399,2.9046155,-0.0004086832822343687,-1.3134977919506108,0.8581796983067052,-0.01965412,0.7188159781979473,0.44749750000000005,1.150618,-2.110347,0.51191573084052,40.034523445896895,0.8378302500000001,-0.00033565683993988505,-1.0014434855683927,0.8276614888221321,-0.09577153000000001,0.8637957286341811,0.524021,1.540917,-2.825794,0.74785381615713,59.152946713583624,1.0161435,-0.00023474676545699245,-0.9037569661802474,1.0920825083428456,0.13325014000000002,4.465406990338462,3.8912050000000002,7.908482,-5.844757,19.758216593279982,1545.0140454299471,7.76152075,-0.00013335433568863837,0.18713571583682384,-1.3967781575078302,17.727745000000002,5.21858149,1.9451685904077112,shaking_fb
0.99836709,13.372056732058402,9.577031,26.749817,-20.970812,178.02051907932957,13985.903107437964,19.836371999999997,-0.00010249842550182517,0.10983367671422961,-0.8995011511646873,-0.9525600799999999,5.618733995093587,3.4567035,9.020604,-11.360637,32.161840696553746,2583.6008691177385,6.626776,-9.803482269796271e-05,-0.2576953646880184,-0.675120678203402,-2.2265207100000004,3.5767794423997774,1.0524765,1.438616,-11.585392,17.622812139836824,1764.1343855162718,4.07721325,-0.00014707779884085774,-1.1969851033678678,0.08790795660923623,-0.0014165500000000008,0.9316667747171983,0.436877,1.629281,-2.493139,0.8593249559347299,67.14627512907823,0.85590875,-0.00032871221581493547,-0.6024082266771478,0.5496260992533051,0.10040321,0.7878412434445204,0.6690750000000001,1.274786,-1.553974,0.62456769120179,49.65544279290238,1.3213317500000001,-0.0007362656237842529,-0.3375101634547287,-1.078926155763257,0.08688884000000005,4.240940919430094,3.8750665,6.706998,-5.673183,17.81327375379216,1392.2524182154066,7.7615485,-1.6968166397097372e-05,0.1320792759855297,-1.5166282553214943,18.25743062,5.223350900000001,2.5593292398152094,shaking_fb
0.9661411600000003,13.262717572648782,10.4494185,24.777294,-20.970812,175.07410937877452,13750.913052176167,20.347534749999998,-8.072721785675059e-05,0.05163316252817348,-1.0229969938609227,-1.3674078399999998,5.019550616285389,3.139247,5.630564,-11.360637,26.813733706449977,2240.9589955874867,7.02312825,-9.37712528091207e-05,-0.6599946569744662,-0.7224180652760448,-1.5867691000000002,4.132945981937557,1.700407,5.195867,-11.585392,19.428266241432482,1714.6707513489027,4.744559499999999,-1.0899518313580973e-05,-0.8356021411922023,-0.2927106330821334,-0.04693999999999999,1.0256169999000795,0.67735,1.629281,-2.493139,1.0435746917792,81.77550972646289,1.3094372499999998,-0.0006305145188385514,-0.4758272885920409,-0.3320610369422612,0.11570201000000001,0.8351930941394404,0.717975,1.547282,-1.553974,0.7039589845712699,56.048445330667676,1.43908075,-2.635866960034816e-05,-0.17565831136907076,-1.190722024609518,0.2381669700000001,4.331079434662027,3.995553,6.956215,-5.673183,18.627390084257794,1459.7765492465933,8.01681825,-0.00037716345405316905,0.15163947804193517,-1.4991211986425432,18.2673173,5.453226559999998,2.785875455340634,shaking_fb
1.2498600599999996,13.263247084536008,10.383428,24.777294,-20.846912,175.7167361627816,13851.3247214772,19.906777249999998,-0.00038979151684813033,-0.028733015575482097,-0.9819111634399298,-1.06528504,4.4525156601973865,3.378443,5.630564,-10.352827,20.76147896370774,1710.8275902477387,6.95508075,-0.00021349970361205265,-0.4305552676040403,-0.9718710307128084,-1.9150575600000002,4.4294479698327125,2.4013839999999997,5.195867,-12.744485,23.091254682393743,2090.6467583255285,6.173261999999999,-0.0003192787633882351,-0.7645459943028933,-0.42768961912495174,0.027823600000000018,1.1981712154676947,0.676032,2.198014,-3.087994,1.4220322716765397,111.16042086764013,1.3119885,-6.313685174294352e-05,-0.7364819776792529,0.37952340752040525,0.06457109000000001,1.1379406083513197,0.7049565,1.547282,-4.051937,1.2861291655174099,100.80952318712329,1.2882275,-0.000224832165883272,-1.4924921925464818,2.7613704920888074,-0.07874720000000007,4.230483877175916,3.462492,7.395937,-5.647676,17.72422501820276,1385.2293033509761,7.6733055,-0.0002595779111325,0.35794910719407336,-1.3023939162648177,18.26683844,5.56140475,1.1168239973662906,shaking_fb
1.13064375,12.876683985838284,9.622596,23.590219,-20.846912,165.42925585584672,13024.112274244908,19.840712,-6.699781680065201e-05,-0.14549971864203232,-1.01655250111601,-1.9808157799999997,3.695090652349939,2.3223005,3.548057,-10.352827,17.44078913409006,1669.253753450362,5.26810375,-0.0003047768935785044,-0.5913767433674015,-0.6441652760002121,-1.6389148499999997,4.72896812856537,2.8039845,6.485294,-12.744485,24.825550050927713,2149.39830805557,6.924854,-4.307096593612107e-05,-0.5862101211711083,-0.5422351040241669,-0.012223449999999995,1.2573761011799827,0.864153,2.198014,-3.087994,1.5653341259502904,122.3056518705665,1.8754535,-0.0001227580904230148,-0.572173080959134,-0.2582033104789425,0.04894091000000001,1.1487609670910048,0.664218,1.793681,-4.051937,1.30885045458837,102.46607981584435,1.2722445,-0.00033985350116781166,-1.4239441769613819,2.537262294472667,-0.04838973000000004,3.930829067098109,3.555867,7.395937,-5.107544,15.299244549165433,1195.5594354010948,7.072555250000001,-0.00037934189528660467,0.33098884553949026,-1.2488561740358228,17.7611725,5.42304763,1.7317196607787813,shaking_fb
1.4343377699999997,12.550891769186565,9.700782,23.590219,-21.693562,158.0069601982652,12505.093569099612,20.1267065,-8.857566647905794e-05,-0.13117787067980052,-0.9735109843304364,-2.22900172,3.7832218632684453,2.1594955,3.548057,-10.5086,19.1380886578082,1883.3436957504807,4.964713499999999,-8.228208991754938e-05,-0.612659102706417,-0.5625686128945349,-1.5871776399999995,4.867474379368232,2.4565255,6.485294,-13.299341,25.974516626384062,2226.266950313502,6.5282395,-0.00028281993781550995,-0.7072364478914359,-0.4523486449645562,0.026563290000000014,1.205225039740379,1.1204935,1.748041,-2.410183,1.4387473308286503,112.45738514271876,1.9907997499999999,-2.7052901289642855e-06,-0.2183784392119685,-1.1545328009376106,-0.01772387000000001,0.9821895028181347,0.749001,1.793681,-2.222462,0.95536339281945,74.66357772648317,1.5135025,-6.81921255953011e-06,-0.16073236232115676,-0.9756961177348304,-0.03619585000000001,3.81807458283632,3.8454115,5.835948,-4.982051,14.433226724456949,1127.6988584072994,7.35867075,-1.8276509633061164e-05,0.13679883263382517,-1.559248269823494,17.575690690000002,5.40645851,0.43787538955415356,shaking_fb
1.4676381300000003,12.662843026839077,9.109488,25.02255,-21.693562,160.89807926777334,12738.564367684456,19.17684425,-0.00013975041705847015,-0.07788680851101512,-0.9030929465798074,-2.0688461,4.008384273054357,2.2035635,4.605696,-10.5086,20.186597221150024,1911.4797574991728,5.52791225,-6.022972480189759e-05,-0.4208346894677012,-0.6297883553227028,-1.3783508699999996,5.042992911120024,2.458396,6.528838,-13.299341,27.07731084742051,2263.877201296364,6.5959129999999995,-5.84406021536711e-06,-0.6612950790860364,-0.5512077120083876,-0.021152050000000006,1.2023388653357319,1.0864194999999999,1.748041,-2.410183,1.43160996884505,111.87975027544914,2.018655,-5.980270187510226e-05,-0.14997436163634953,-1.1331542610468135,-0.0026228200000000235,1.015835233977732,0.811074,1.479583,-2.222462,1.02160888954944,79.8152570665455,1.728988,-0.0001491232993376644,-0.3429547955147919,-1.1162978605881875,-0.09511742999999993,3.7544117180553624,3.6377479999999998,5.835948,-4.982051,13.963698600674507,1091.62392060729,7.32418625,-8.630425859472742e-05,0.15459232655365593,-1.5675860120532197,18.103630120000002,5.373071379999999,1.1865416888810016,shaking_fb
1.3854018000000001,12.470856150478841,9.433528500000001,25.02255,-20.09244,155.88636874211983,12329.299119406169,18.8580045,-0.00021865585852941537,0.032114736419578675,-0.9928106809770076,-1.7546460499999998,3.8134901978312112,2.4759785,4.605696,-10.379014,17.47606317484579,1605.967989092814,5.235820250000001,-6.217111006483573e-05,-0.4615524683742401,-0.5195628514945718,-1.7227059000000002,5.227460908174425,3.648314,6.528838,-15.328128,30.02079968892168,2577.5164362087594,6.8343229999999995,-0.00038984320731979275,-0.6199454518731461,-0.44061771402556094,-0.09598599999999997,1.3863601750158652,1.0112079999999999,2.333035,-2.789886,1.9119879017173202,150.10811805591845,2.040534,-3.8046475943152194e-05,-0.15751576299657438,-0.8008913209091872,-0.13951628,1.1572503946727535,0.619036,1.479583,-4.176958,1.3453009835955796,106.62823021069374,1.35439225,-9.493047137835302e-05,-1.3743829342987477,2.164276837717674,0.15851737,3.8213739701471185,3.7158985,6.348601,-5.375214,14.481997786112489,1133.3823682303528,7.00421725,-0.00011882086948415319,0.1037888477780312,-1.4657811481325795,17.98553461,5.47381359,1.8196698575579235,shaking_fb
1.38658693,12.635937465455768,9.8690485,25.069686,-20.09244,159.9928697890465,12649.899194806187,19.725378999999997,-4.20932794439552e-05,0.09346630947189859,-0.9722533369755784,-1.7987157900000001,3.894569886342269,2.7100865,4.848707,-10.379014,18.25137634680333,1678.9032473547904,5.4293015,-0.0002845308885675101,-0.3239944335172816,-0.6124187896811297,-1.9587487199999998,4.989262437514354,3.1827170000000002,4.970961,-15.328128,28.480508821789403,2524.8557000130704,6.260687750000001,-2.5452349785425033e-05,-0.7306391710270493,-0.32953762121441743,0.07044850999999996,1.349432315568684,0.8798600000000001,2.333035,-2.789886,1.8077208911192701,141.65082612631625,1.7349549999999998,-0.000224001606580935,-0.43263271926438307,-0.49595054744030787,-0.09727378,1.1278325951222605,0.732361,1.606688,-4.176958,1.2687484872695003,99.86273147401482,1.44727975,-8.721989134386567e-05,-1.4826370625335745,2.8371742807323637,-0.08838940000000002,3.8909429059982807,3.828572,6.348601,-5.375214,14.99585501679332,1172.1842864911757,7.4938085,-0.0001732671603758338,0.15444274430953198,-1.4535400221893422,17.92746332,5.484325350000001,0.08070502738103284,shaking_fb
0.92399727,13.269390948277765,10.6207535,25.069686,-24.045416,175.16973973182107,13752.239075836294,21.248689249999998,-0.00017351334191750787,-0.018805477390773796,-0.9201789446119308,-1.5383733000000002,3.493355370088418,2.226832,4.848707,-8.047211,14.448088834461219,1313.6740191169292,4.4092217499999995,-7.918526365595608e-05,-0.12442694087907093,-0.7137640058593977,-1.5897259200000002,4.543710067263225,2.699163,4.970961,-13.427581,22.96607666431554,1991.7143639749208,6.0482397500000005,-0.00015669570248940732,-0.708718990952832,-0.2453580554266197,-0.08673023,1.2006572763552656,0.8886945,1.896964,-2.553244,1.43468424910805,112.6746601610424,1.7518704999999999,-0.00012000736447904004,-0.32624009534036397,-0.8867758232153835,0.04365691,0.9018212895663604,0.79872,1.606688,-2.245767,0.8070547477227302,63.211730894888,1.55582475,-0.00016202897884810754,-0.3226982320061404,-0.7101005078188747,0.25944567,3.986134604734709,3.992001,6.31024,-5.276374,15.79768845187465,1239.455689737198,7.5855325,-5.5789732465131046e-05,0.06741843502402545,-1.5697009742268693,17.78242107,5.4533459099999995,2.573306890807473,shaking_fb
0.7929790699999997,13.010532911169866,10.946814,22.209512,-24.045416,168.21004277176607,13191.722188115164,21.73280425,-0.0004009150877055959,-0.12108378188931672,-1.0646579897310882,-1.1741090000000003,3.811272729471089,2.5856630000000003,6.213253,-8.047211,15.759073764106898,1338.9739487784966,4.9427544999999995,-1.4533376861190503e-05,-0.026488567094929225,-0.7008206958545,-1.79559137,4.325084604644418,2.545785,4.223372,-13.427581,21.743441636977312,1950.6339524649618,6.3637127499999995,-1.4428725856884026e-05,-0.8602809978467294,-0.12353558140854215,0.005499970000000009,1.1998218704274264,0.968371,1.896964,-2.553244,1.4252070452184102,111.35991354248186,1.47793225,-0.00033199345413573823,-0.47358422640281483,-0.7113547725252514,0.14542056,0.8757143201186187,0.710127,1.689865,-2.245767,0.78035395402692,62.629569709409296,1.31415525,-0.00016127096291288995,-0.5495074742069289,-0.14992486021540818,-0.40752380999999993,4.056705016471574,3.394566,6.31024,-5.747685,16.45836269047589,1298.7927748156237,7.542313999999999,-5.1925593815236744e-05,0.2825401051287097,-1.430163004778191,17.68480942,5.436800139999999,0.9628041926821346,shaking_fb
3.93564252,9.832420767131016,7.312191,22.209512,-14.132523,111.19901520572212,9898.501173246654,15.428984,-0.000319558798647657,0.13615100500894511,-0.9179116512379584,-2.66687427,5.042281508544907,3.667917,6.213253,-10.510695,32.28257515528779,3080.244421196671,9.24532175,-0.0010077424664834305,0.0008642394573795056,-1.2085325508009375,-1.38121792,3.7693312706092628,2.40505,4.223372,-11.093084,15.973542587846039,1399.2419029160242,5.61245775,-0.0009836498238007456,-0.7393981522950903,-0.2976743673878315,-0.19013633000000002,0.9463159882460201,0.7329235000000001,1.43436,-2.149483,0.9227106340998099,74.97739269651026,1.38556875,-0.0006711906458600334,-0.2547792036333101,-0.9708759349977618,-0.10190698000000001,0.6593338159657972,0.335191,1.689865,-1.527968,0.44075890263997997,35.25235534215361,0.6731400000000001,-0.0003334612682063218,0.5311583092141863,0.29331774219805196,0.22076762999999994,3.4670464247065995,3.6437619999999997,4.78363,-5.747685,11.948945148415929,937.786970243571,5.94774275,-0.0007967626641266778,-0.15634875752409666,-1.303388050526331,16.36367999,4.36791478,2.107599931261202,shaking_fb
0.8976235699999998,6.817746145425165,5.8313025,9.67437,-14.132523,46.822573951844646,3721.046001094338,11.59639,-0.0001052224882091594,-0.4122882031378179,-0.8803472329087536,-6.76787386,2.015124035674682,1.4627075,-1.714847,-10.510695,49.824234215233574,7472.837549579918,3.3304845000000007,-0.0009609545280142293,-0.047127823127149526,-0.832063460867448,-3.01982597,2.747877718914555,1.7335514999999997,0.789488,-11.093084,16.59467252761243,2008.9596152682336,3.6692637499999994,-0.00018401749132757674,-1.019766844653704,0.5125174411612865,-0.12842345999999996,0.872489424944942,0.435323,1.312944,-2.149483,0.7701180037527199,61.49305068189738,1.24073575,-0.0005338500252842565,-0.7497147474837773,-0.5421411970528629,-0.022640399999999995,0.49302556319517465,0.337566,0.978221,-1.527968,0.24115605161644,18.889135995116543,0.664575,-0.0004404131390670489,-0.5966532783387823,0.5599108156717105,0.05141658999999993,2.61464448820123,1.3760715,4.78363,-3.207069,6.770645807411491,530.3236920509249,3.18696975,-0.0012480004581673632,0.7351146455234228,-0.806993729683454,15.871020540000002,3.1434484100000004,1.6831449504188551,shaking_fb
0.5893267500000001,12.578856078779928,8.548123,25.093927,-23.866749,156.99265006641772,12296.364388238298,16.8370365,-0.0005039412149238525,-0.17181668577758855,-0.6417039717932616,-4.16922085,7.294163570951551,4.7114895,9.242965,-13.999795,70.05517647387344,6831.327450594555,13.171626,-0.00019332861840325904,0.4594631982212057,-1.2107034251581903,-1.37764912,2.566533013773007,1.4946549999999998,4.226963,-9.709086,8.41913789151566,806.20544091646,2.878878,-0.00038646786591600317,-0.9284962181982294,1.2983761874009287,0.39423983,0.8316213178319851,0.31436600000000003,1.781892,-2.347735,0.84010311966831,77.78721326246553,0.6522235,-0.0003231519474490967,-1.3128893995263125,2.459889103713839,-0.6516032500000003,1.1509435845696556,0.885043,1.565741,-2.770741,1.73601121892399,168.85230620327857,1.8395155,-0.00020192234523586317,-0.025555149252148152,-0.830574637010649,0.37276804999999996,3.7017198179109827,1.375548,8.486929,-3.702374,13.70465833331257,1082.3462204765808,5.208237499999999,-0.0008211413736754998,0.9881478292159781,-0.4762871591998481,19.826493180000003,4.81680099,0.8654110956164061,shaking_fb
1.6624049300000001,13.669077878526016,11.4045555,22.568792,-23.866749,187.73884330000553,14885.389606119545,22.780305249999998,-0.00038455932874365944,-0.18873338578294507,-1.0964646141711323,-1.8540353099999998,6.468059916979459,3.5296515000000004,8.772505,-13.999795,44.85488802946676,3775.018208679044,11.184326500000001,-0.0008013800685615836,-0.50583436245325,-1.0174476308555684,-0.9637245100000001,2.6840005783571144,1.3947720000000001,4.226963,-9.709086,8.060585444749849,703.0046149694696,2.95683925,-0.0006887243084857304,-1.1066614822699397,1.3400537744117385,0.08346498000000001,0.6733337706051682,0.3421455,0.857549,-2.347735,0.4558109858574,36.20733028293624,0.6700905,-0.0005746747927523803,-1.8968457630759132,3.5992638098359615,0.18129759999999998,0.7145782212933922,0.4080425,1.630345,-1.741981,0.5383846337691199,44.669729656115166,0.8244017499999999,-0.00025956116502602193,-0.3291795677172346,0.014012784824527724,-0.04861055999999999,4.1752688519235575,2.7108575,8.486929,-4.797675,17.26090427252814,1348.6993214695192,6.4017712499999995,-9.121695745973693e-06,0.6945296036914227,-0.8348297471723485,19.06047887,4.62299262,1.8488014797075267,shaking_fb
1.4459631299999995,14.14025041510771,9.596185,22.568792,-28.035802,200.03802435725365,15795.178395379218,22.22892775,-0.0005539307799478059,-0.4689553052324452,-0.8210526403767178,-0.8659153900000001,4.782887936526129,2.3358425,4.919187,-11.99076,23.397066305872343,1886.8359734738633,7.0875855,-0.00026796237447788556,-0.8777022848360898,-0.446689850095916,-1.2510421399999998,3.0317397454893085,1.0841245,2.198925,-9.106945,10.664637861591563,955.6511776473802,2.1174095,-0.00035765138729360507,-1.3076962152008198,0.5854749821051963,-0.13929345000000004,0.6484323387648772,0.33854049999999997,1.026957,-2.126441,0.4356625181894301,35.56146452823192,0.69484125,-0.0003724923118507669,-0.7431771206787845,0.9485985392212601,0.04213538000000001,0.7197159901139425,0.325454,1.630345,-2.390683,0.51458658560918,40.346881065153525,0.57945425,-0.00035806330169651433,-0.9931390108783814,2.023055917797965,0.34645298999999985,4.2250212141109715,3.5136939999999997,8.150181,-4.797675,17.79232589137081,1399.4434565466352,7.85130375,-0.00019454817243183762,0.3675272216814071,-1.2821437382386756,17.84602756,4.7327201400000005,2.588929432811954,shaking_fb
1.44383534,15.242093908335034,10.944195,27.756728,-28.035802,232.08287293243177,18298.24100998123,24.096143,-0.0005312478061431099,-0.1788331509405936,-0.9433183267884724,0.24355167000000003,5.178922282908997,2.3407060000000004,7.255778,-11.99076,26.612341068246987,2083.9852295962746,6.393229249999999,-0.00013875008286051848,-0.9329030213306281,-0.16529583942260162,-0.73207652,3.6604520634238757,1.517026,6.972963,-9.106945,13.800856246673177,1120.118699208853,2.9002015,-0.0001184549224920242,-0.5451743531382294,0.057246432147467274,0.005798119999999997,0.7780426056168365,0.533296,1.231662,-2.126441,0.59933041138902,46.84061557495237,1.12926475,-0.0004233259542631223,-0.49374445474716333,-0.1502102589825962,0.0010103799999999995,0.880078977515853,0.54832,2.178798,-2.390683,0.76679463746644,60.028192526511454,1.070869,-0.0008694920759081518,-0.28493632279276143,0.3133898477694017,0.6323987699999999,4.800701648250453,4.200298,8.150181,-6.316032,23.21619715665699,1845.6045569896903,8.97320525,-0.0006491028900876305,-0.08764677642637937,-1.477411076935647,19.92267577,5.712588149999999,2.02511590991171,shaking_fb
-0.88163483,16.004889587248428,10.5026145,27.756728,-34.054526,254.37220576648227,19952.613719124933,20.6013575,-0.0008582305284603154,-0.17007630389808212,-0.5354306370817525,0.3593098300000001,5.091521377259827,2.8876315,7.255778,-11.064803,25.79345758967749,2029.7524354979969,7.01373925,-0.0009395968253093209,-0.8146007547645663,-0.37354532606811075,-0.9543393,4.391484860490606,2.1040545,6.972963,-13.494918,20.0030513866435,1634.4265124576284,3.82548525,-0.0004107681087692523,-1.0501135575447869,0.9966005045089781,0.24809076000000002,1.098656905014391,0.640983,1.694968,-2.834465,1.2565255501838197,102.98973247456118,1.30095625,-0.00032124288394161425,-0.9919445496711056,0.5468393946732446,0.04247739999999999,0.94455784004616,0.5772065,2.178798,-2.588253,0.8850719475714999,69.29482888055895,1.144214,-0.00015420626178231498,-0.2974957869644834,0.051468711507950626,-1.1403542500000001,5.159350173048094,3.1394565,8.51253,-6.487277,27.65311308154315,2262.076895175959,9.830946749999999,-0.00020260634939635216,0.5783342039907047,-1.2226164433963755,19.96476736,6.487579049999999,0.9739078678739237,shaking_fb
-1.74155577,16.449110383590956,12.9853265,25.845856,-34.054526,270.9005165874644,21455.926601156945,25.260174,-0.0011402440139586954,-0.22626600314032966,-0.8946389159291872,1.0393768100000003,5.4404198930167516,2.277634,7.453,-11.064803,30.382491079374848,2464.8566846857007,8.262801249999999,-0.0010252988699879205,-0.9460605205976744,-0.4357898007686014,-1.35167948,4.004514457437395,1.5627404999999999,4.051139,-13.494918,17.70281209607994,1528.812899002124,2.96488175,-0.0009673851537892517,-1.458557028517668,1.5213450165032034,-0.17552263,1.1664042153644736,0.6645555000000001,1.694968,-2.834465,1.3777019993259298,110.1104006513559,1.2662917500000002,-0.0006857530246192753,-0.24848044608295994,-0.5077438012738384,-0.10725852999999998,0.8724669521048,0.5121155,1.641733,-2.588253,0.76509098894765,60.88902138647671,0.98800825,-5.8682258204785865e-05,-0.5185309975389446,0.12929829033054308,1.1799383299999997,5.352790989675931,5.0256915,8.789036,-6.487277,29.75810212796745,2434.37577110342,10.587875,-0.0002737237790699065,-0.0822959400944423,-1.5565913124655195,21.113155120000002,6.5699955899999996,2.071245147007746,shaking_fb
0.7389569000000002,15.33952836601436,13.36174,25.845856,-25.070284,233.49417648689933,18297.86350765062,27.67341725,-0.0008442967699432698,-0.148301723094448,-1.2167485531692595,-0.010102059999999923,5.8908300904495325,3.4347065,7.453,-12.554146,34.35496241461642,2684.6824280754763,9.481114,-0.00035255667689953557,-0.7405066798765966,-0.7260781955675291,-1.26944909,3.163115851297089,1.0248685,4.051139,-9.534609,11.516749861941468,1026.1672417611967,3.1671925,-0.0004029523716434394,-1.0932758175604436,0.5178350775657137,0.010271600000000013,0.7825977830965252,0.5265845,1.143826,-2.221842,0.60644020297308,47.402558515462076,0.98064475,-0.0004530823892583631,-0.8389574978101755,0.37898142199677354,0.01168504,0.6333848786244582,0.30301100000000003,1.263135,-1.955043,0.39730118058521996,31.259811267816673,0.6886807500000001,-0.0006660587744440167,-1.1292972805603854,1.3243501221162175,-0.18494814,4.5484589218127365,3.177551,8.789036,-5.67445,20.515799592273165,1606.151527968078,7.9840835000000006,-0.0009928872056774547,0.518989719312617,-1.1284362357607862,20.60325299,5.155325260000001,0.4765444274972308,shaking_fb
-2.4367137199999997,16.354314016587807,13.9225075,26.259903,-26.669012,270.72652483686494,21615.55744329071,27.262251250000002,-0.0002466920086456125,0.14372198903771052,-1.1896013838056896,-2.57822452,5.256851254730813,1.7740285,2.856881,-12.920309,34.0053819387505,3177.99821204387,8.803142750000001,-0.0007410686250755918,-0.7387697165701629,-1.0377979379132165,-2.0260587099999996,4.1629464607427575,2.7086655,4.432266,-11.756428,21.261735899027414,1981.8062524492066,5.814094750000001,-3.298621271677433e-05,-0.6290911155793258,-0.6206121769552646,-0.05765123000000001,0.9069483471644125,0.6285395,1.143826,-2.41726,0.81765341570053,64.26043410538088,1.389908,-0.0009621469747217644,-0.8545884057397659,0.0626393931320881,-0.037523910000000014,0.8581847782854166,0.3527085,1.466287,-3.110715,0.7305243463656699,57.80983673365611,0.779555,-0.0015367389545250796,-1.4707364072367255,2.689519284139765,-0.01179657000000006,4.020079890802097,3.58902,6.778008,-5.538404,15.99957106421085,1251.3784025241337,7.282733,-0.0010318847000492452,0.21472663775402248,-1.3179956719285533,21.93059991,4.885141109999999,0.41319458685076366,shaking_fb
3.31899494,16.50847240941961,14.033762499999998,26.259903,-26.669012,280.8200920913885,22799.81564645543,28.04717425,-8.926250307627506e-05,-0.22956267640228145,-1.1014801712506805,-0.90239108,4.686805346773506,1.569474,4.759224,-12.920309,22.560792576222845,1826.6740699862348,5.155202750000001,-0.0005133487795444874,-1.1759011007720461,0.1251673093787078,-0.4664204100000001,3.9301497927114637,1.9532950000000002,5.188534,-11.756428,15.509164618083032,1228.6984940671791,5.45762,-7.600387664685282e-05,-1.0605907771629297,0.5851078663487468,-0.0406064,0.9062512129886027,0.640412,1.490364,-2.41726,0.8147272281538401,63.81111123006825,1.261128,-0.000473057635270892,-0.7302810866770089,0.37907736905665157,-0.015474530000000007,0.9084454799488209,0.5635475,1.466287,-3.110715,0.8172599192177699,63.91564494439724,1.2328335,-0.000489853087352561,-1.1177416077935776,1.6551526644034569,-0.04982019000000011,4.054389189311722,3.639013,6.778008,-5.607119,16.27617303275533,1273.8250663889182,7.3293254999999995,-0.001109426054943611,0.2215543848203257,-1.3362429945907264,20.862901190000002,4.970946720000001,2.0099988679076173,shaking_fb
-1.4924091300000004,15.751967211626434,12.1308215,26.254067,-27.596167,247.87051133710003,19546.552562966663,24.101979,-0.0006563962285740684,0.10250855986810596,-1.0361840188676155,-1.4815993799999998,5.197786396728714,3.49531,5.384111,-11.39206,28.94195031457428,2436.916392631196,8.59907475,-0.0011207733892581555,-0.5065626168438571,-1.1636734031984137,-1.63964507,4.140554292760839,2.758569,5.188534,-12.389545,19.66118390836251,1747.0214526506797,5.9873375,-0.0005651050530301456,-0.7015310244564814,-0.13560495493249913,0.12314146,1.0333244791075051,0.6234225,1.858576,-2.413394,1.0722457035025,85.08132873078611,1.595033,-0.0008593566807035604,-0.6986669775793817,-0.04051357068671413,0.058716250000000025,1.034549729359222,0.50993,2.099881,-3.636486,1.06303780910613,83.32605885657082,1.1816520000000001,-0.00019483082813821266,-1.1885014944711465,2.4288001782167594,-0.46232808000000014,4.402296238992018,2.8311635,7.95968,-5.607119,19.400157307641322,1532.8024045975717,8.19973725,-0.0006013008047421742,0.565692007958696,-1.1471650033249425,21.36395224,5.59210667,1.1819854193029986,shaking_fb
1.39411675,15.443626003082306,10.3897875,26.461615,-27.596167,238.06408979447974,18763.03256550619,23.199814,-0.0011020319731487973,-0.37593139983490065,-0.8568294434822756,-0.31015241000000016,4.701308400757917,2.2190510000000003,5.384111,-11.39206,21.97747218967541,1724.9127686865988,6.1415015,-0.0006680330001278743,-1.0624373346719946,-0.10642946853152946,-0.5518171000000001,4.483976452167031,1.7602620000000002,7.907599,-12.389545,20.20948648720496,1602.9903863955533,6.04098225,-0.0005917614987160375,-0.8379562181516692,0.3497236605188072,-0.05183749,1.0964813860941092,0.7122505,1.868565,-2.413394,1.19293584111985,93.41532874738589,1.63938,-0.0001194639054029315,-0.11403126913470461,-0.6395165220965069,-0.08376833000000002,1.0284783674865305,0.5679274999999999,2.099881,-3.636486,1.05420720797487,82.96791355108402,1.06184425,-0.0002620141466029782,-0.9417054325716142,2.0095141324319528,0.7540931700000002,4.469846893032569,4.1314459999999995,7.95968,-5.476754,20.34839244372203,1634.4439467350003,8.4133155,-0.0005649149947599389,-0.034852459531435426,-1.4801789655862139,20.15192954,5.755176529999997,1.9791744919970764,shaking_fb
-0.1633623500000002,14.845778087122858,10.5419695,26.461615,-29.616275,218.2198429993736,17053.825499813625,20.9328045,-0.00026298875676130035,-0.13754044131892976,-0.6574081229086035,-0.9458892,4.242599896692617,2.2595275,3.996222,-11.278037,18.71436372325868,1532.7029469661668,4.9219175,-0.0002812199912375899,-0.9993568013800626,0.009170424656541165,-0.503764,4.089628556065781,1.9200750000000002,7.907599,-10.91337,16.8115892770188,1333.2844629188032,4.7256307500000005,-0.00014716242554495417,-0.6593941204152526,0.39130194161491394,0.13884476,1.0616219659346982,0.8821665000000001,1.868565,-2.221411,1.13504865394896,90.23414001891913,1.660457,-0.0003954522224180099,-0.4729371175686081,-0.6539097295868666,-0.04194392999999999,1.001710138324428,0.5376325,1.706003,-3.705249,0.9951482624735699,77.91860741163242,1.060185,-1.0575885479302457e-05,-1.4290022442652042,3.0388750686432857,-0.58210038,4.518769677650293,3.390688,7.452524,-5.676265,20.553927458051362,1632.2543769710196,8.92396475,-5.4064186008017104e-05,0.3836447892785296,-1.3811585608896522,18.07498357,5.779054769999999,1.0735056404240482,shaking_fb
-0.46566924,14.764557650856355,11.107674,23.536648,-29.616275,216.0290888402885,16918.079618915926,21.74178275,-0.0011013625113213254,-0.15658678461753955,-0.7783228343556066,-0.7878674000000002,4.184424589136069,1.3269865,3.495086,-11.278037,17.95505009072766,1451.3865912000808,4.913163750000001,-0.0001649201878645022,-1.2262220243410449,0.239345410446401,-0.87426669,3.693313482675868,1.3058125,5.139752,-10.91337,14.268501081745748,1174.7968561975665,4.1353480000000005,-0.00044489764280826233,-1.055215224234868,0.6057311238304193,-0.23248720999999997,1.1185264944043172,0.807978,1.417749,-3.076669,1.2926408063111499,105.53388881685613,1.591551,-0.0012001194822342885,-0.4242946839390544,-0.6203486095856938,-0.11797782000000001,1.003953926560472,0.5074175000000001,1.706003,-3.705249,1.01176301780158,80.13510287048055,1.0238245,-0.00011950754856489741,-1.1300727473733327,2.654815091405938,0.7889366199999998,4.6912042603178365,4.615527,7.452524,-5.676265,22.409744428281,1799.392409697839,9.236234999999999,-5.44068408672363e-05,0.01772629628587625,-1.5548049422467929,17.82186111,5.919042010000001,2.0539089550555683,shaking_fb
0.015694009999999904,14.932095311915353,11.4350065,23.536648,-26.502915,220.73804200203315,17250.99080298635,23.603199500000002,-0.0006616039939568677,-0.19538758985428903,-0.9909896889282197,-0.5535229400000002,3.769155084281684,1.147421,3.495086,-9.940127,14.370852393979037,1146.7287576830704,4.143053999999999,-0.00033840434533074354,-1.24918845056066,0.32614916663509375,-1.51607135,4.943327051731691,1.476549,5.139752,-13.605051,26.490589855269345,2250.090858126057,5.298107,-0.0006288500231912586,-1.0644521441245056,-0.05569544727947573,0.13062713,1.3106410711748955,0.8419335,1.994298,-3.076669,1.7176656643680104,135.57381313655637,1.92982925,-0.0004918805970808451,-0.38354409644898474,-0.4440078962860845,-0.06646467,0.8328452257873178,0.44485199999999997,1.678642,-2.09843,0.6911124107737698,54.35765166972803,0.9641437499999999,-0.00035868102375920827,-0.13136757769732652,-0.11430182432546765,-0.30830101000000004,4.416691904791835,3.87398,7.316286,-5.773275,19.407145220802207,1523.836688586851,8.3420805,-0.000514072048576903,0.31646958308042644,-1.3744538938324404,18.83788248,5.674810150000001,0.4057230302748326,shaking_fb
-1.7981771299999998,15.637745517249275,14.0585275,22.041619,-26.502915,245.32713500448241,19422.894295376565,27.97590975,-0.0004102463619535877,-0.059378148718239175,-1.2898219572721732,-0.5119281999999999,3.9425763430624827,1.475202,4.394108,-9.940127,15.650539620622421,1244.0963321459988,4.9525935,-0.00032309129416045523,-1.0392466121271242,-0.0508769405483922,-1.8485242,5.524331262665634,3.1979800000000003,5.885097,-13.605051,33.630095258653874,2897.407443322311,9.23952325,-0.0010167585421505694,-0.63327352882725,-0.932585821661847,-0.04889801000000002,1.440608669720963,1.075972,1.994298,-3.218793,2.05699082126441,161.8250084685419,2.2885645,-0.001026127485887439,-0.2993228426272238,-0.6955203408061461,-0.25028348,1.0399220026570803,0.579296,1.678642,-3.604377,1.1332652142551196,94.09168468307794,1.21487925,-0.000286213420083102,-0.71925414057203,1.0856396507140786,0.27237844000000005,4.531376568840923,4.131554,7.925256,-5.773275,20.40222988713096,1600.686912756998,8.29249375,-0.000514113114795221,0.20081818308955912,-1.3687595413846705,21.12315235,6.019762450000001,1.8681668805568823,shaking_fb
0.95052198,15.420141427582871,13.247043,24.302194,-27.036073,236.306446064654,18541.14365308289,27.49864075,-0.0009964367244781152,-0.27409178153356006,-1.1593063505612895,0.19805583000000004,3.8869841333898436,1.4708625000000002,5.366453,-9.724499,14.99678530848915,1176.5492858277119,4.0592935,-0.001433097903087658,-1.12444454609983,0.15614832292459058,-0.93900441,4.498319212302879,2.0800375,5.885097,-10.424204,20.914256260414913,1703.145494867493,6.952649749999999,-0.00038845778078063506,-0.6879094736537928,-0.7650445915909709,-0.05660047000000001,1.2713875830055348,0.8943835,2.120118,-3.218793,1.6034657355626698,125.62888767350874,1.7121357499999998,-0.000983667583039959,-0.3393872793808365,-0.17861265969819806,-0.20357471,1.1017391644640513,0.41367050000000005,1.975706,-3.604377,1.24313355720039,100.63963947985403,1.39333925,-0.001045686356582565,-0.5534267182226852,1.189419277032501,-0.31355710999999986,4.637021690184809,3.8049544999999996,7.925256,-6.320668,21.385268514923474,1678.7927666613982,8.2467375,-0.0009197783798889113,0.36580855933712214,-1.232145719026232,20.07008962,5.99824355,1.1677540852943467,shaking_fb
-2.91392597,16.83190266716426,13.5114525,29.769204,-27.163714,288.9707824815629,23244.544974439425,26.941128250000002,-0.000522858188167149,0.19218288384127286,-1.0574248610193981,-0.07459435000000003,4.75201025983136,3.2328455,7.005733,-9.724499,22.361349811499007,1747.473437581682,7.568408,-0.00013231984505661373,-0.4104682610554747,-1.014096163014452,-2.9212732399999997,5.646079628305254,2.5614969999999997,5.295824,-16.546178,40.09327036021206,3799.112103239457,8.273089,-4.7382400579900476e-05,-0.8507662947527104,-0.4165340085933913,-0.08030483000000002,1.455831327966079,0.7735475,2.120118,-4.330089,2.1046992726539298,164.97363314117166,1.5730454999999999,-0.0004591296495356759,-0.9014779950165357,0.7809784865399112,0.002409809999999998,1.202442475592913,0.8935314999999999,2.056727,-3.167929,1.4314150352231498,112.88868200949867,1.696852,-0.0012124328126406976,-0.2887308706148897,-0.38154839159646015,-0.0012739700000000377,4.762395571096834,4.1416575,9.044187,-6.320668,22.453609082846288,1755.7197063807089,9.09142425,-0.0007922377731916094,0.3055155040443777,-1.1936241409590118,22.979218219999996,6.20631571,0.7722028369879583,shaking_fb
2.0010184300000002,16.691587768612475,14.78861,29.769204,-27.163714,279.8270859721204,22179.24845075909,29.51796325,-0.0005450401823779066,-0.12473420008156613,-1.1600146484650242,1.17880464,3.7396851508892803,2.18209,7.005733,-7.543531,15.234972956789498,1299.3139600962145,5.080682749999999,-0.0005340120210503522,-0.5695437374559295,-0.587524960852674,-2.2015223500000003,5.51926224510984,1.8778775,5.295824,-16.546178,35.00433383054149,3113.406862879831,7.08227275,-9.29396760141018e-05,-1.183826156849051,0.28280161724362296,-0.03340549000000001,1.5433559225402909,0.746636,2.563437,-4.330089,2.3592439553659297,184.4263618658018,1.974297,-0.0002914988193482722,-0.630719770115343,0.427555283731317,-0.009083230000000012,1.1087087857330409,0.8129974999999999,2.056727,-2.736197,1.21702532491325,95.23762493291896,1.68275375,-0.0007022247980126619,-0.1406411881190161,-0.40536036488509986,0.21109423000000002,4.73711872064014,4.111464,9.044187,-6.966366,22.260451609644182,1743.9973227039422,8.3607445,-0.0008589647484461029,0.18137678547274896,-1.1556223970378154,21.700765419999996,6.125860490000001,2.4851804394804375,shaking_fb
-2.33154388,15.811133033313846,12.134113500000002,23.699454,-29.100623,252.92810538354223,20186.84555354252,24.943354,-0.0003705812264670514,0.004543031411662352,-1.1408278405734904,-0.012678769999999997,3.7529274638622083,2.5737665,5.654206,-8.723573,13.94378065472983,1090.1636988348225,5.8853965,-0.0007412805716307701,-0.5940270861758478,-0.6088361947036187,-2.79816041,4.687714911972973,2.156128,2.925116,-14.296227,29.58462606506581,2924.812671729581,6.9794719999999995,-0.0007778284675465847,-0.8074760947473597,-0.5348401349843033,0.32545676999999995,1.4212839326408027,1.076966,2.563437,-3.733465,2.10576964614991,172.82685663560775,1.95295775,-0.00036732681330642217,-0.6852597396528523,0.2535679649684277,0.012470140000000001,1.1709051536995911,0.695818,1.90742,-3.868475,1.35746419456228,106.10045006218968,1.37417325,-0.00033403968945372095,-0.9291215142523095,1.5808441524331265,-0.38558329,4.88925424150262,3.5751665,9.304309,-6.966366,23.814433441198076,1872.5120218031961,8.1376005,-0.0005009398051289254,0.47709225880874423,-1.0515051147935028,20.74361454,6.373524419999999,1.3958640779393598,shaking_fb
0.0538785300000001,15.691316621687603,11.0761755,22.223878,-29.100623,243.758146044824,19048.80218646169,24.5617405,-0.00048005849162696446,-0.40313989758189195,-1.020507505937533,0.29616722999999995,3.3408527720072345,1.1221320000000001,5.654206,-8.723573,11.137399299912015,877.0734733305686,3.30605625,-0.00010435533211146754,-1.1727610850674082,0.7860769837048798,-1.01446815,5.155050346703877,1.4339775,6.085163,-14.296227,27.33794426364567,2216.2618328333892,5.7508725,-2.647891895831355e-05,-1.0905796703908828,0.12502945186741865,-0.013261340000000002,1.3394916866195075,0.6309895,2.50577,-3.733465,1.7764714618761404,138.81046145227228,1.5430395,-0.00012360498795452603,-0.2780839510317435,0.33398770172149206,-0.13727931000000002,1.2024908074595,0.6599895,1.833427,-3.868475,1.4503699095584301,115.06655768083937,1.451882,-0.0008804557944590385,-0.7827004583525148,0.7825190936225894,0.48782364000000006,4.827443640859491,4.3160609999999995,9.304309,-6.115798,23.309141888360838,1839.829294298654,8.63579825,-0.00036568515551608995,0.134806252742467,-1.281741238368555,19.891423950000004,6.19751443,3.1149771031147164,shaking_fb
-1.8177825999999997,15.60323806354631,11.979312499999999,22.223878,-32.575807,244.33076126788612,19349.693608482718,23.66971375,-0.0005673823300992185,-0.211880582846625,-0.8718218065602361,0.6685718199999999,3.037596265861559,1.559224,7.354988,-5.942259,9.581709442130439,783.8457960125295,2.94988125,-0.0006572488007024472,-0.19795616665980925,0.08090639620628703,-1.3602342099999998,5.436760520866686,2.022876,6.085163,-16.399533,31.113018417696388,2576.6455702534486,5.5734025,-0.0005367604096919908,-1.1322915468458714,0.3936546790705848,0.24250263000000005,1.5326760839114817,1.0208895,2.566326,-3.356331,2.3844125439692103,190.88328553599823,2.50063825,-4.684655007950734e-05,-0.10491283531794036,-0.7726135693941476,-0.07753122999999999,1.273864012559004,0.929199,1.852418,-3.467704,1.61251331889331,126.61438994556664,2.07480825,-0.0007374161816845973,-0.5245082518496568,-0.42838628305121906,-0.42495806999999997,4.904910780095161,4.0803745,9.426721,-6.216401,23.99815762434491,1889.0725923550833,8.787413749999999,-0.0003750672147493423,0.5032212884570083,-1.0563120980844105,19.427062530000004,6.62308127,1.4979019280971375,shaking_fb
-1.3032776400000001,15.72785436012439,10.8031615,25.362377,-32.575807,246.59028135247496,19403.814472007864,22.702755500000002,-0.0005933301986405157,-0.24431559676987213,-0.7703971410131878,1.25537272,3.4386284646161482,1.8844615,10.498275,-5.942259,13.281884726611917,1165.878666559536,3.82095825,-0.0013697640359726917,-0.16051360436513512,-0.09810061187905061,-1.2605187500000001,5.482889594142179,1.353023,7.378331,-16.399533,31.350365037638635,2573.431516374665,5.428965,-7.746716430265e-05,-1.1209779944288296,0.4357161516781045,-0.022919730000000013,1.5359615447278174,1.0414910000000002,2.566326,-3.356331,2.33611140223711,182.7737071179907,2.460172,-0.0008785607653598939,0.07067882384475689,-0.8515439200607062,-0.20989822999999994,1.2682378127010028,0.98583,1.889885,-3.467704,1.6364001450261103,131.42702428629042,1.9640652500000002,-0.0006535789467346552,-0.16820581755818395,-0.489702394554008,0.85264665,5.303557850265397,4.6591685,10.494508,-6.921546,28.57345492215683,2290.5005280249948,9.5393865,-0.0007693618964113467,0.13543113817326152,-1.3313493401758487,19.78176647,7.06165677,2.3123428082167403,shaking_fb
-1.3517602400000004,16.337004886063156,11.9300075,25.362377,-36.861129,266.05600710722376,20949.27542235539,24.13157,-0.0008422782089943275,-0.33705735893342254,-0.7225438431122164,1.42106493,3.527132988540289,1.9337665,12.644228,-6.274754,14.335685982936567,1279.1326190423963,3.73813425,-0.0006244628730514752,0.7410427857338504,1.785160514120216,-1.00012692,5.30541133327417,1.1864765,7.378331,-14.720599,28.86616937719036,2333.4390277617563,5.41396325,-0.00019661505638544408,-1.1179648820354182,0.25100570463284333,0.19500676000000003,1.501322444588845,1.1177745,2.475202,-3.79088,2.2694570282456596,180.4686484601581,2.16720975,-0.0007549885013083855,-0.5849977576918367,-0.08481467087791694,-0.27467210999999997,1.1747447054827598,0.5568719999999999,2.360161,-3.764606,1.44166963984103,118.52640729110453,1.06929525,-1.1466908615441955e-05,-0.3863493051409011,1.0320118012250017,-0.6989656599999999,5.333870866020033,4.5048215,10.880849,-7.051369,28.654229625082763,2276.965756137484,9.3601135,-0.00030943522992700164,0.5426043687097253,-0.8493618441258444,20.028860029999997,6.766711109999999,1.5443766470650682,shaking_fb
-4.671380719999999,17.440137646949832,14.163198999999999,25.102905,-36.861129,322.93861496429895,26957.411093492825,27.97003625,-0.000879940941970364,0.07462270017457483,-1.1164322162867568,1.49604086,3.68124727765104,1.7546505000000001,12.644228,-6.274754,15.654203958810596,1407.5917266300362,3.23355625,-0.001433269873174715,0.7319983378237307,1.1681850748143674,-2.0284679,5.781919453081837,3.0026279999999996,8.600122,-14.720599,37.210968657637316,3235.316171980482,8.865804,-0.0011140009560945464,-0.5135440721290843,-0.7515023713026698,-0.28029669999999995,1.6638520900138762,1.235854,2.475202,-3.79088,2.8192859797000005,226.58830861649227,2.41721325,-0.0007497692343474123,-0.09874505184591817,-0.9854065481864089,-0.14073621,1.3413495563704554,0.710691,3.31325,-3.764606,1.8010331268566302,142.34433558266107,1.49258425,-0.00047905094913590183,0.036581816637804035,0.7877288457299163,0.7446394199999997,5.3093394705164325,4.488752,10.880849,-7.051369,28.46168262286982,2272.7831513017686,8.84627,-0.0012991758729450989,0.12698740851132675,-1.181760670135335,22.944710379999997,6.980946550000001,1.6669264889111661,shaking_fb
-0.4345640600000006,16.381407435803503,15.934834,25.102905,-26.182092,265.85585040426383,20787.136931550693,31.68224625,-0.0004868274785625082,-0.0349625620195125,-1.3415452927653633,1.25647859,2.5854943391746894,0.9545380000000001,9.465327,-3.030161,8.19667161525371,765.3713776501079,1.873126,-0.0010124406219357849,0.7917399553340747,1.2814814727418389,-1.8431431799999995,5.47128809715167,3.1387980000000004,8.600122,-14.501829,33.03282028959372,2846.135569713663,7.7517895,-0.00011379832547864212,-0.6070287397833171,-0.3082173056536375,-0.17494197000000003,1.3555104210489388,0.9874115,1.977603,-2.705233,1.84963910942403,146.89701149795653,1.9790245,-0.0002058862115661927,-0.10765597494304327,-0.9876594893396935,0.08670876,1.1189270884243985,0.692423,3.31325,-1.671743,1.2469962599785398,98.0414368983291,1.40030975,-0.00038792758350956335,0.6511870681449631,0.1682137970480504,-0.05439376999999998,4.866180689291412,4.2063325,9.062648,-6.349168,23.445876038039128,1832.6241108904815,8.63431525,-0.0006664494230721799,0.3787465907351345,-1.1076659261854984,20.49989083,6.185934040000001,0.9030556625405216,shaking_fb
-4.4920610199999995,17.0230155790175,14.179061,25.193735,-32.926558,307.06384101684137,25567.103650848214,27.67558775,-0.0002913494553979419,0.12956139733694882,-1.1570966088850358,0.23809442000000003,2.7451669058381114,1.462782,5.634754,-5.477784,7.5172708803348405,592.1811213299719,4.26455925,-0.0005576911219423357,-0.3039681951305933,-0.5569625092301367,-3.1578053399999995,5.101428948273777,2.143484,4.010138,-14.501829,35.73606610647534,3571.508595933031,7.02440075,-0.0003088009595037181,-0.8356733655903869,-0.6073528211804611,0.09337230000000002,1.1359471327197015,0.771754,1.977603,-2.764982,1.2861905158580604,101.48301032454701,1.5399357500000002,-0.001116104262950416,-0.12950981436459832,-0.46274386929660727,0.017948099999999988,0.8746771741737611,0.5699315,1.870522,-1.837439,0.7577316917240001,59.421165425627976,1.188659,-0.0010350565526898135,0.1516992572983868,-0.5001250879710724,-0.09841560999999993,4.717814585082172,4.3041195,7.880385,-6.349168,22.044882346913585,1723.6929649267672,8.9305175,-0.0006901496585987897,0.29937265570226784,-1.2179379378609014,21.289417719999996,5.67562917,1.7100341575456741,shaking_fb
-0.3655317699999998,17.221461981644527,14.7597295,25.193735,-32.926558,293.74657873225493,22959.67526589936,29.1193285,-0.00015558799034660065,-0.20518299873017765,-1.0661171711717008,0.3980554600000001,2.6383149523860343,1.1941085,5.634754,-5.477784,7.0495468793397,563.3970738128723,3.00693025,-0.0004492240381078254,-0.46270591187873295,-0.13513651056193599,-0.9523281200000002,4.437293819476976,2.0528785000000003,6.316652,-12.699594,20.39960952410762,1664.5917669629741,4.454636499999999,-5.086351148118816e-05,-1.1375879122628103,0.7026093779208931,0.07130168000000005,1.1265132594046117,0.8514709999999999,1.782933,-2.764982,1.26142573194908,98.9931695075952,1.73899625,-0.0005315672520166582,-0.1874502632133523,-0.6561395225456188,0.02733461000000002,0.8713427131337538,0.609103,1.817919,-1.93872,0.75239292339783,58.90166420548944,1.2267674999999998,-0.0005741932168655466,-0.2558800161877411,-0.5017198909061142,0.025139099999999956,4.664539296594465,4.254338,7.880385,-5.967929,21.540979555328057,1683.894084524575,8.91185575,-0.0008034094332683356,0.2981398725896129,-1.2858467148251724,19.72474713,5.696894649999999,2.0313354550293137,shaking_fb
-2.8473701500000006,15.821829789151497,13.066281,23.372945,-29.808559,255.93451166922395,20630.202036632283,25.32365825,-0.00033881972359334705,0.046014507210905366,-1.1563346493946214,0.09185952999999991,3.267967718499678,1.6638955,8.343793,-6.498312,10.581255052316251,827.5286366813717,3.424718,-0.00012073223590586301,0.12249798069758765,0.022452077368932954,-1.648749,4.920342103172459,2.2830209999999997,6.316652,-13.370718,26.686042013130063,2297.4857127488026,6.862493,-0.00025615267465258743,-0.8164676797966183,-0.3632559842375045,0.06154935000000002,1.314785971004133,0.9742695,1.782933,-3.448301,1.71516385053921,134.2936548569718,2.07821375,-5.921087652656632e-05,-0.610368783739194,-0.1648589225946444,-0.03541786999999999,0.970893589154375,0.517707,1.817919,-2.704929,0.9344624433617901,73.11297229162119,1.3539365,-0.00020524513270282207,-0.7018693133731655,-0.06535971861505185,-0.20982144000000005,4.669642362667043,3.865919,8.486462,-5.967929,21.631529233946157,1693.4220638894508,8.603192499999999,-0.00011337143161726738,0.4251294816019307,-1.1975094573783784,19.96601084,5.99422244,1.339087922828709,shaking_fb
-1.31946701,15.926358999852093,13.764040999999999,23.497443,-29.808559,252.8534150727264,19896.312750788114,27.431865000000002,-0.000647307790572111,-0.13410334950040453,-1.1800416400204377,0.17625513999999998,3.2304366162477347,1.5750104999999999,8.343793,-6.498312,10.3624293986546,812.4981077395773,3.05934025,-0.0006901993829748962,0.08909599797752768,0.11571733787018346,-1.4923911800000003,4.795146897512958,1.9907035,5.788431,-13.370718,24.990730865182655,2126.6605110277656,5.5135475000000005,-0.00027298180678625645,-0.993874473945658,-0.04675941468523792,-0.044974349999999975,1.3327432463486302,0.728898,2.102872,-3.448301,1.7604652072389297,137.69519410444107,2.152495,-4.171794175440636e-05,-0.324616214630966,-0.347352966080019,-0.1446556,0.9756150230933587,0.6258255,2.262647,-2.704929,0.9632316691639599,76.89178317623181,1.4187855,-3.7944646591845497e-05,-0.2521969187541641,0.009083072716419949,0.23406381999999992,4.707707406981095,4.365883999999999,8.486462,-6.47648,21.99566981128022,1722.7752912497963,8.271319,-0.0002998801675524427,0.16006433066850603,-1.2907971281600725,19.71411685,6.013572109999999,2.1721950185013377,shaking_fb
-2.0189899,14.899787005114627,11.8668605,23.497443,-28.067376,223.8599364861068,17809.634884011863,23.682095750000002,-0.0005493348803203723,0.04688699057152803,-1.059581496027931,-0.4952795499999999,2.424749674358265,1.646612,4.520552,-5.646276,6.065918706115711,493.3808139050634,3.3394245,-1.3803037550318611e-05,-0.3019073817643455,-0.49807298898723307,-1.42394846,3.774152378124419,1.820117,5.788431,-10.144532,16.129413128305558,1418.9412728718032,5.1558762499999995,-0.00018328536622188866,-0.6028105429510379,-0.22527936266133297,0.18901236999999999,1.175094453374437,0.9513365,2.102872,-2.336349,1.40276418062087,112.39127175060227,2.0205319999999998,-0.0001748743769692082,-0.0644568614001691,-1.1270220969672196,-0.08336849,0.9628265472891876,0.6232785000000001,2.262647,-2.450891,0.9247149156880501,72.80607611109812,1.24538,-0.00031461030678974313,-0.16366359796647137,-0.13956534921631425,-0.22879563,4.619758051796094,3.896837,8.032857,-6.47648,21.18109025287059,1658.9190849707957,8.5732195,-0.00012820941478942436,0.30971299065874763,-1.2731787745038916,17.689542510000003,5.88474731,1.5895039891379286,shaking_fb
-1.4922325599999993,13.724886351711787,10.494759,17.991827,-28.067376,188.71553832685458,14918.580902492235,22.81094325,-0.00012401488857583488,-0.37257501516221886,-1.0082455083253044,-1.40861356,2.273695877980723,1.1207855000000002,4.520552,-5.646276,7.1021881775069415,711.2003858657174,2.519635,-0.0012158465808888332,0.36876993597248414,0.09966110474751266,-1.0746988,3.7573801593115626,1.6635214999999999,4.542998,-10.144532,15.131704115693738,1272.712478418513,4.0176575,-0.0004888240936303352,-0.9136151480787674,-0.07692027089648734,0.02546274999999999,1.1066975260958771,0.855731,1.994357,-2.336349,1.2131799717616298,94.83463593572822,1.9161160000000002,-0.00024976594829220577,0.06944201064081942,-0.9359979020027205,0.0011970500000000007,0.815938356048444,0.527992,1.536773,-2.450891,0.65909927979103,51.5243348764982,1.02508925,-1.9919159393784298e-05,-0.7239713004883285,0.6898867923364738,0.05917512999999991,4.398710668713698,3.7287765,8.032857,-5.746962,19.15867068759567,1497.108370157335,7.987709,-0.0001610595970641871,0.28310042028169957,-1.2485926515222239,16.605817579999997,5.418511570000001,2.335002909095256,shaking_fb
3.49519024,7.239885006573471,2.5076270000000003,17.991827,-8.701427,64.10813037311452,5966.991500887355,10.761412499999999,-0.0006813680086997923,0.7148459585382877,-0.6931329019756869,-5.44098933,4.056743998814295,4.2396825,0.050578,-10.77301,45.896965042370475,5902.584096407019,8.4467435,-0.001217556020536141,0.045823184691318124,-1.7960724309050156,-0.8733329599999999,2.7653440386204338,1.983222,4.542998,-6.852056,8.333366834436601,710.6577718850119,4.08997,-7.104830504758379e-05,-0.05336124793577281,-0.6968919675177268,-0.09010674999999999,0.9292540974073187,0.676509,1.994357,-1.631702,0.8629972721683699,68.23053823823324,1.355437,-0.0012101172316838363,0.45728801679562564,-0.518575480147291,0.21694615999999997,0.46886651477882574,0.29163849999999997,1.536773,-0.791146,0.26470308693278,24.394808393468892,0.6955344999999999,-0.0007209055600664287,0.6215570609725802,-0.12378334451114581,-0.43762746,2.999002174361836,1.9106119999999998,3.277631,-5.746962,9.0955916951548,726.6424275927121,4.94696025,-0.0010732037980229437,-0.6612421775077323,-1.0214501225457806,13.462280170000001,3.54537407,1.9213690282752005,shaking_fb
-0.20528636999999972,14.243950036289316,7.951667,20.225318,-34.813189,200.9033540036511,15703.968121004162,20.21820975,-0.0006712937117206609,-0.7599279944722509,-0.4379456975384062,-1.8347111500000002,7.595282291551775,5.587543000000001,10.691906,-14.603134,60.477594961410695,4989.76394234175,14.86484925,-0.0006038331101045884,0.20928267956538565,-1.2735919052736566,0.14999223,3.0574051180938353,1.9748425,4.258985,-7.591565,9.27674646464529,726.5844894606214,3.9443725,-9.759814714478606e-05,-0.8709333971769111,-0.0653521454624717,0.3428321,0.814511210340455,0.34493850000000004,1.932077,-2.408539,0.77432807544298,69.74190333346438,0.72110275,-0.0006019495614138807,-1.4966526973820675,2.7393298321340582,-0.009920729999999989,1.252926878845083,0.4878845,3.316628,-3.672323,1.55422592697889,121.45761836241779,0.8718092499999999,-0.00025003751890267966,0.1295987775509257,1.1586627081227885,0.6498308800000001,4.51784597607126,1.21408,11.658714,-5.504204,20.629103113469817,1646.288021135798,4.646856,-0.0008134209390124126,1.0773875203087384,0.15592985421454353,21.42445819,4.920606530000001,1.5375114628525248,shaking_fb
0.85437382,15.60870580978972,10.577358,24.768315,-34.813189,241.9253347102991,18967.243395890386,23.0196125,-0.0008345910918284647,-0.48919684384917433,-0.656424005523959,0.9908448599999998,7.55540445525613,3.818677,10.691906,-14.603134,57.49506865426756,4568.898546461701,11.878607249999998,-3.487181863226757e-05,-0.7077361286379129,-0.8956016699030633,-0.1527366000000001,2.8077977228157938,1.21805,4.258985,-7.591565,7.82821924070662,613.5173078176085,3.2791587499999997,-0.00013112715471302278,-1.053051172947849,0.27713457292813937,0.07813608999999999,0.7849700347959258,0.39092899999999997,1.932077,-2.408539,0.61612142453273,48.61195149138139,0.84523575,-7.178365617441774e-06,-0.8635298467376068,1.8711689978801074,-0.06320279,1.2829188902525896,0.583503,3.316628,-3.672323,1.63341666284105,127.96228362743418,1.17773725,-0.0003431582503385011,0.20468254587976986,0.8555088836786906,0.7364664000000001,5.459878089952635,4.5007845,11.658714,-6.023902,30.054548827902355,2391.1096679446705,9.45345875,-0.0005517963078229855,0.45345502586784026,-1.111934849818884,22.02653258,6.212563080000001,1.6816912643139157,shaking_fb
0.6889569699999997,14.557116706679142,11.784410000000001,24.768315,-26.313623,210.26521205026992,16469.441008513488,24.6598285,-0.0005939556351227381,-0.20287167938246412,-0.997799450579016,0.5217848400000001,6.318282393492924,4.1631425,9.656264,-12.433388,39.79374489913728,3130.6579551251602,8.83374425,-0.00027987753834702624,-0.6380254377917065,-0.7764063054620545,-1.01979373,3.395080359764104,1.3505539999999998,2.732832,-11.344027,12.45128419451071,1054.0524807273425,2.9174842500000002,-0.0001894140164072903,-1.3387100593432877,0.7868609487612583,0.05754857,0.9301416098198747,0.510025,1.68188,-2.79546,0.85982361808417,67.54306593464516,0.9991760000000001,-0.0012692126431372282,-0.9263001619100156,1.3376815983758323,-0.048124320000000005,1.0262853456134937,0.4799575,1.979716,-3.320118,1.0450449446902603,82.06865528792815,0.986642,-0.001408211950681163,-0.7140275464930805,1.0683563345451805,-0.46814289,5.010718244316627,3.4171495,9.134651,-6.023902,25.075382116145793,1976.24704664405,9.13819325,-8.533261064941596e-05,0.5315023586534358,-1.1462157289382215,20.02976988,5.939818979999999,0.6821506086670458,shaking_fb
-0.8383237000000004,14.648208765664759,13.743091499999998,19.49374,-26.313623,213.1271064680546,16732.21369732939,27.484799000000002,-0.0012125936244457031,-0.12862544440595602,-1.3332954216435224,-1.0476667299999998,5.161048427977433,2.0042459999999997,6.471826,-12.433388,27.467662244317932,2240.8601106917845,7.42920825,-0.0012979057261488037,-0.8939524590357515,-0.5132424053860092,-1.0825801699999997,3.608197477518514,2.1227590000000003,4.096928,-11.344027,14.060877970880469,1192.2510643246867,5.13833075,-0.0009004561541673568,-0.9307624673884143,0.11707133766971545,-0.17966015999999996,1.0551059985210711,0.627458,1.68188,-2.79546,1.13439395452522,91.32961506870717,1.0061615000000002,-0.001455835777508738,-0.44521781454868714,-0.32219880908672494,0.07128679,1.01876183120398,0.5374829999999999,1.979716,-3.320118,1.03257871845941,81.23946423040562,1.329919,-0.00040227660017543265,-0.8486919994058594,1.4561364384601436,0.8986115799999999,4.956396959411477,4.462534999999999,9.134651,-5.877531,25.127714882780808,2027.621038118649,8.85665275,-0.0009087301641271732,0.2401964140609598,-1.3193930258543562,19.78943842,5.90732749,2.172407979760319,shaking_fb
2.24259939,15.268034502856331,11.934646500000001,22.647202,-24.900894,235.81100082863574,18826.473365442103,27.6165175,-0.0005853785068587351,-0.3873327358665109,-1.2778080299402148,0.28510449,5.842901792813271,1.8480245000000002,9.510966,-12.621633,33.87939091707409,2656.7325981178496,7.20362875,-0.0009859524936485984,-0.6411384558546048,-0.46540920782534734,-0.86568343,3.739013667664766,1.860893,4.188207,-10.08348,14.58982877589065,1199.6616069107508,5.091045,-0.0011369340465917852,-0.9529146165180237,-0.09054235332606986,0.059069790000000004,0.9179881052290746,0.5294055,1.746982,-1.816464,0.83776437981929,65.72645483488708,1.0679145,-0.00016439016677411816,-0.08430872713928415,-0.3847537285625653,0.08152137999999999,0.8709923264100944,0.458117,1.941529,-2.502023,0.75768709173572,59.72143074328376,1.104503,-0.0001738675658234489,-0.5446995047581241,0.8179672469873185,-0.59425257,4.705818138826752,3.521089,8.626986,-6.989893,22.27641322910537,1768.7034589459226,7.1967375,-0.0006692222625557245,0.43791741933687856,-0.9386395544559267,21.486144830000004,5.42056898,1.0935759942429502,shaking_fb
-3.95200538,17.21606994284152,16.071153,23.60204,-28.865692,309.04748015759196,25368.50734923882,31.501185,-0.00015401708939541717,0.13393418440867036,-1.3447110285456791,-0.08907335000000005,7.667802839880965,6.543578,9.524882,-12.621633,58.21518244905396,4548.800829762667,14.979098,-0.00011943374420544416,-0.23209924269126045,-1.5349738594582363,-2.12720923,4.331146612290954,2.4833855,4.411167,-10.514286,23.096261775585013,2158.285803305612,7.19375275,-9.835158777537623e-05,-0.46195550521838025,-1.1163424014932983,-0.015547049999999998,1.037982383793367,0.6973535,1.746982,-2.662248,1.06687506553841,83.6906981405055,1.43879425,-0.0011924053240939772,-0.3034291509202927,-0.23435731666678228,-0.08950652999999999,1.257317783351636,0.7414890000000001,2.254194,-4.151364,1.57305094716159,123.7822866277819,1.4030615,-0.0007927137478342884,-0.9401624024937267,1.3173839683405095,0.0018640299999999543,5.089306747120489,4.0696650000000005,10.213001,-6.989893,25.642036209231108,2006.2137868798936,8.078551999999998,-0.0010459827802656771,0.36041951356476204,-1.007469178114625,26.08212616,6.043290949999999,1.4096444395065242,shaking_fb
2.24250953,16.89427465379378,12.9438025,25.000553,-28.865692,287.5911999091814,22869.213415389186,26.98366275,-0.000612113112535289,-0.4156192916704626,-1.0295862718901116,2.7827416599999997,6.766974643398636,4.274997000000001,11.254394,-11.999888,53.07767751245566,4752.058076318946,10.0633905,-0.00022635838846699419,-0.7362372695631831,-0.734105712348375,-0.4423526800000001,3.7967118582088117,1.111583,5.753566,-10.514286,14.46654661842396,1146.017825111759,4.10440975,-0.0005086031110911819,-1.0713602077711082,0.2881181604126022,-0.050134469999999993,1.0823136889883564,0.649015,2.05322,-2.662248,1.16220235724005,91.02293280847564,1.40921575,-0.00039865122921094344,0.03443070206534646,-0.1659030414791589,-0.21030108000000003,1.1331145689879292,0.6059565,2.254194,-4.151364,1.31533568443734,106.26139711468562,1.20218475,-0.0003929988961755599,-0.9118623238108433,2.2622860214266005,0.25361267,5.200536383323156,4.624906,10.213001,-6.957798,26.839442273909736,2104.053640268588,9.036796,-0.0009294170997465343,0.2319359209125558,-1.2082422848614647,24.07334909,6.187012140000002,2.3114899823088444,shaking_fb
-1.3571263199999999,15.476573447404391,11.689091,25.000553,-29.451673,238.97087426461036,18821.011267041653,23.542072750000003,-0.0006056651562795295,-0.0471278709443236,-0.8928556968905061,0.9371773199999999,6.899416614101795,5.088801,11.254394,-12.387001,48.00423144791683,3821.421347797742,11.698555500000001,-0.0006838414569966272,-0.31698000807893967,-1.1043895216783204,-1.4656854,4.286583528295472,1.7020524999999997,5.753566,-12.448053,20.339284053376677,1758.6926438309893,5.845967250000001,-0.0006540104874495064,-1.0555212972981782,0.29279009698868874,0.19222803999999996,1.160629178264482,0.824666,2.05322,-3.092121,1.3705411079067398,109.98586387129562,1.6814325,-0.00048254335847015714,-0.5216362592097727,0.09594573533541606,-0.02426606000000001,0.9968391181625484,0.734036,1.656324,-2.513824,0.9843401868920201,76.9546715033189,1.46102775,-0.0002242349873081577,-0.4960215289759427,-0.394165342049448,-0.71403535,5.220200798664739,3.267451,9.176003,-6.957798,27.48783789564581,2187.560848617459,9.73497175,-0.000227726563870595,0.5497481411822713,-1.1745285074151348,22.19020918,6.53118705,1.0844976101198203,shaking_fb
0.7572799599999995,15.199659905951703,11.095628,22.687455,-29.451673,229.2928375818474,17959.870968279032,23.88193725,-0.0002694590223269314,-0.49252121313520997,-0.8026885408574778,1.0295815400000001,5.929998400443268,2.4605660000000005,8.017732,-12.387001,35.87327036647589,2886.1804109302857,7.984138999999999,-0.00016707891700073235,-0.9572131341225542,-0.47309310095714974,-0.9699494899999997,4.323755980827536,1.4573205,6.046856,-12.448053,19.448719137075724,1593.0251145196937,3.4597339999999996,-6.993205866743443e-05,-1.2661758388683209,0.7556475539187408,-0.013881659999999995,1.019948687813445,0.6570255,1.59652,-3.092121,1.0300850729989997,80.50157699778792,1.423305,-0.0004398039119415118,-0.6651637537793289,0.5824627567885807,-0.07898369000000001,0.986269017783572,0.712474,1.656324,-2.513824,0.96923773297139,76.27467813211385,1.4555885,-0.0006493980303125973,-0.3858143132803251,-0.4605851474862317,0.55418829,5.028032954675886,4.8039015,9.176003,-6.240647,25.33542890014679,2003.5704685566805,9.295575,-0.0005063453063444393,0.17830727027653187,-1.4214060565358286,21.11875453,6.118959780000001,2.346911847094208,shaking_fb
0.1639190199999998,14.40288934615613,12.58961,22.687455,-24.888624,205.39565874755928,16049.553118543654,24.2767935,-0.0004426084962186819,-0.16988183454765865,-1.1077765312723344,0.8905681900000001,5.1859158237023895,2.9592335,8.017732,-10.724527,27.417897402261456,2204.703346081939,7.21799425,-0.0009488212039238061,-0.7590413059080382,-0.5892146969058554,-1.67602497,5.0902277079552425,1.6258875000000002,6.046856,-13.230957,28.460373637710433,2443.1043721484657,6.010157250000001,-0.0004702807615976053,-1.03787603915564,-0.2291996476715017,0.08216394,1.4566513919009747,0.8255075000000001,2.476511,-4.2263,2.1073658577881,165.16574493588175,1.7946167499999999,-3.207423950378575e-05,-0.6538299562735738,0.6288427364617699,0.05085956,0.9427808165920679,0.7178914999999999,1.568576,-2.118193,0.8825340062960599,69.18137904694697,1.4189349999999998,-0.00034012396237653985,-0.34405415119429444,-0.668458812267358,-0.38981460999999995,4.9598258526565875,4.087466500000001,8.953904,-6.568087,24.50582919396329,1926.4515682734716,8.9628675,-0.00028901013674997145,0.40580453873389155,-1.1979153719414537,20.252770299999998,6.29110881,0.37430893093505646,shaking_fb
0.37281908000000014,14.501897389035697,11.9139965,24.331972,-24.888624,208.3409716697111,16292.759127454656,23.67188375,-0.0005498351375397539,-0.1721878965990431,-1.062344365521447,2.09625519,6.018339874149255,3.442488,10.224887,-10.724527,40.25249651396906,3488.182131710557,8.83224675,-0.0003818518102497572,-0.6707486976851217,-0.780356151298109,-1.74729886,4.977110736513679,1.284639,3.931129,-13.230957,27.576968276841843,2393.2657430536447,6.01011975,-0.0005256605702184298,-1.1524322406715752,-0.17166157719260333,-0.010302140000000013,1.4477627283340502,0.682134,2.476511,-4.2263,2.0751628824662998,162.17569196968236,1.83370025,-0.0004402808526568141,-0.5048469710125786,0.5568201197029561,-0.013539320000000004,0.9262607417605291,0.6734469999999999,1.616436,-2.118193,0.84956268529556,66.41053496095152,1.51651925,-0.000385006430420462,-0.05994811272345379,-0.6922750465926639,0.33968208,5.226477292143369,4.6285755,8.953904,-6.814341,27.158288151910515,2130.884696257033,9.550372,-0.00034635831495913647,0.2188761964888683,-1.4009822070414124,21.43568093,6.509747999999999,2.3022955383759456,shaking_fb
0.3294825299999999,15.518182372460691,11.0261215,24.331972,-29.567044,238.5144030410755,18648.459095840994,22.68928825,-0.0006008326174705972,-0.4273167788827415,-0.8337825414593567,1.7752077499999999,6.637031036099292,3.1089455,10.224887,-13.22557,46.761041720063865,3899.934385265767,8.62656975,-0.000312613985298194,-0.8239037274498373,-0.5383004795040831,-0.80159667,3.8949446128270484,1.065719,3.931129,-12.76708,15.66144482297563,1273.9441327175502,3.35397725,-0.00023465288488529055,-1.480037836992359,1.2283380919233613,0.16588625,1.0196312090931483,0.7328625000000001,1.687151,-2.790738,1.0567695724702502,84.8759372234353,1.4224675,-0.000977929680703552,-0.568438867026895,-0.0350644552093744,-0.12722941999999995,1.0376924180261087,0.5631505,1.616436,-4.061263,1.08222482419812,85.87506025583937,1.185646,-0.0005146406460683995,-1.3305852583454914,3.2266561189124845,-0.36682623,5.22915134056547,3.9015489999999997,9.134192,-6.814341,27.20514498812827,2136.099273712142,9.91754525,-0.000365456925586861,0.40205144431899825,-1.2890370297881029,21.81473691,6.318717959999999,1.4229763205632278,shaking_fb
-1.41843879,15.76380499414259,13.579463,23.7629,-29.567044,248.02454101539792,19565.331789933432,26.527941,-0.0011389933169765843,-0.1900994505759317,-1.0797534320682995,1.1832743399999999,6.36374773029154,3.614721,10.015394,-13.22557,41.49245048674526,3356.21113372455,8.378658,-0.0009617108236850983,-0.7568641177049706,-0.5409448933180672,-1.03227945,3.7716120233128017,1.326612,2.883517,-12.76708,15.148407544746012,1267.7527356485884,3.0614732499999997,-0.0006235317231637784,-1.510380518202233,1.3447896387669136,-0.08499802000000002,1.116650940380062,0.7962905,1.687151,-2.790738,1.24166489282908,97.59638977436035,1.451479,-0.00017859471239077015,-0.2966109104193052,-0.6543529608662739,-0.19111234999999996,1.0963194109093177,0.6620714999999999,1.27441,-4.061263,1.2264210185517102,99.22251405261721,1.32001525,-0.0007260146645390394,-1.3319826080066843,2.22184631823675,0.7416694599999998,5.338698129461001,5.0240755,9.134192,-6.587848,28.766754328231983,2291.554002760074,10.31322225,-0.0008261280777922929,0.13961957132323144,-1.5291497930846352,21.57766914,6.587996230000001,2.134430101591605,shaking_fb
0.9478480100000002,16.04571265001402,12.9417825,23.7629,-30.644883,255.78866135241284,20061.811364548368,25.4141885,-0.0006855920184189808,-0.38922351785106135,-0.9838703570795544,1.93597093,6.947971623793331,3.8417209999999997,11.474062,-13.061268,51.53955002999205,4322.019801124862,9.49592825,-0.0008370539208727167,-0.7943677041980942,-0.5616993008004494,-0.97762731,3.6477334061115227,1.192612,2.883517,-11.876587,14.128654569299192,1178.5215982766417,3.0414595,-1.8224307831853023e-05,-1.359293713063534,0.7212051495043532,0.029127589999999995,1.0538078329172635,0.4226815,2.200106,-2.008875,1.1002542557298098,86.05428811878642,1.1258672500000002,-6.446060865857317e-07,0.37091486870038815,-0.30246037253703273,-0.056044720000000006,1.127160006348655,0.7171105,2.089722,-3.703391,1.26092579375266,98.84567611890759,1.3773762500000002,-0.00017068463690042058,-0.7444211217168133,1.2457320972377914,-0.42891911,5.084542018308336,3.7977884999999993,8.333405,-7.041512,25.778013463506767,2028.6920049909388,9.0934025,-0.0006292079848396385,0.3955087053002958,-1.2879020017531952,22.59341373,6.251078199999999,1.234698543267401,shaking_fb
-3.2162133400000004,16.424835316482294,14.121226,24.697687,-30.644883,277.4214912702222,22483.467877108535,27.6413195,-0.0003911594414172232,0.10688947018782534,-1.1671358518757382,0.08340800999999999,7.597028627437391,6.1583355,11.817181,-13.061268,57.144652422574374,4467.358993008206,12.1002945,-0.0007640886736745001,-0.157742654095474,-1.2193870620826066,-1.9445436299999996,3.6546776737895437,1.8409170000000001,2.787898,-11.876587,17.00435213927637,1625.5112896895287,5.14940425,-0.0007792159373324187,-0.8455553205649032,-0.3262255763225541,0.04084782999999998,1.006185499328805,0.5769865000000001,2.200106,-1.741739,1.0039537116846697,78.64438078459467,1.0929105,-0.0007408729452725713,0.6480728160421945,-0.42371361324135526,-0.01846501999999999,1.0320995056078164,0.553593,2.089722,-3.703391,1.0549180525447397,82.80375823270715,1.1234264999999999,-0.001096340867355458,-0.7108574157073607,2.1226651092647826,0.31055140000000014,5.033460085117141,4.399643,8.519307,-7.041512,25.17880539622474,1975.7122367943655,9.11668675,-0.0008658712454784388,0.008223942482264514,-1.3474233932758055,23.974773719999995,6.007562669999999,2.245467906543783,shaking_fb
0.11255444999999988,15.743456597461268,14.198289500000001,24.697687,-22.884977,245.39052988400013,19172.261630178717,28.1344875,-0.0002447965667299236,0.010459237885921027,-1.387044925989723,1.11528501,6.09924302781817,2.9822775,11.817181,-10.426748,38.07261851079539,3072.3889351306907,8.209492749999999,-0.00046355657869188543,-0.4023745307166026,-0.7268467799417144,-1.1208350699999998,3.420921279977491,1.4570965,3.14209,-9.301623,12.841946633906712,1101.608807622467,4.198195,-0.0003777253310029794,-1.0065174697533454,-0.05259640448948444,0.04311255,0.8626201053845217,0.5770314999999999,1.597065,-1.741739,0.7385310037189698,57.84486684025958,1.17883575,-0.00011245376065816273,0.17526974877573862,-0.7769783731108211,0.057624809999999985,0.7616718724169121,0.545234,1.975334,-1.41927,0.57766321954631,45.39992702742508,1.1890915,-0.0002398262804171664,0.4361639620041891,-0.49356151112335755,0.17572245000000003,4.9552039140874875,4.6129935,8.519307,-6.885987,24.33938375132007,1904.0609464327035,8.6986005,-0.00037488219408505726,0.1325310097192284,-1.3125571328219454,21.887356050000005,5.67642045,2.009416605739232,shaking_fb
-2.0384442099999998,15.832553158619723,14.125715,23.400328,-26.999412,252.31829692259663,20040.66807889913,28.946011,-0.000524349598114973,-0.032895557411137984,-1.3105541536516192,-0.6779391300000001,5.775391440540096,3.508478,6.879888,-11.151443,33.481196292534335,2652.364041242867,9.86579425,-0.0003696848199249324,-0.5803774054169399,-1.130180838576049,-1.4572279100000003,3.714009683800195,1.8246810000000002,3.14209,-9.301623,15.77944243373097,1399.9557489902884,5.92699575,-0.0006386335749932187,-0.7405558543039771,-0.7902957528914847,0.03705787000000003,0.8922576768993878,0.5260605,1.597065,-2.358334,0.78953581009497,61.820272910387175,1.185514,-0.000349020732738703,-0.06175252401292666,-0.22177053686946113,0.023732100000000006,0.9651958192623951,0.6200070000000001,1.975334,-3.17413,0.9228501523968,72.34109400573557,1.2736565,-0.0008708807094678138,-0.8042609527267207,1.4925555711462524,-0.2575560899999999,4.702088291129123,4.277225,8.62566,-6.885987,21.95487309409394,1720.9746331368183,8.4889595,-0.000567102265618955,0.20882442285401592,-1.2692843223380914,21.616235250000003,5.614032700000001,1.13926959822708,shaking_fb
0.7788861800000002,15.303180834348048,13.383737,23.242162,-26.999412,232.4521338936649,18213.038903143348,27.47698025,-0.0005398986398064378,-0.2921335326330236,-1.1305249039732583,1.01511458,6.6598862626808035,5.0451815,11.001506,-11.151443,44.94100179205462,3591.7293521001297,10.303372249999999,-0.00010826182731345876,-0.3654434846793513,-0.999640835564839,-1.1244891800000003,2.768701235919745,1.470713,2.952051,-8.041226,8.85352538438276,791.1814950332196,3.2070335,-0.000531377180234342,-0.8562055599506971,-0.20986776772637805,-0.11619918000000001,0.9350984987025296,0.43142350000000007,1.797022,-2.358334,0.87916735968564,69.79539771825216,1.13878575,-0.0007095403058064619,0.44562374687304684,-0.22836069563510275,-0.24027927999999996,0.8907142187516744,0.5967375,1.066956,-3.17413,0.8431722336888601,70.39621262172285,1.2432415,-0.0002015536676899515,-0.9499446725227043,1.1472393541055634,-0.13385324000000007,4.82193034377518,4.5609079999999995,8.62566,-7.076099,23.036418807676128,1801.542648782509,9.19645225,-0.0006004888653570413,0.07832786720514406,-1.3834947808371858,21.028787979999997,5.784819339999999,1.940750815844974,shaking_fb
-1.1775925800000002,15.853363312522728,13.199009,21.550359,-35.154213,250.20256132012435,19655.591968129447,26.74644975,-9.755699678402365e-05,-0.3401202481569523,-0.9668633910209969,2.7667634199999998,6.350961858732415,4.3621605,11.535862,-8.84882,47.58634918801324,4316.693307279654,12.526462749999999,-0.00040504407141079315,-0.3852479419296197,-1.3489847005218862,-2.58743915,5.403926667244144,1.5169515,2.59726,-18.13922,35.60524054565558,3305.4089943973304,4.3889835,-0.0003019458160992482,-1.5138877223935276,1.062034089381509,-0.16388663999999992,1.5175947036062918,0.7732425,1.867083,-4.88822,2.3069215783402197,182.46509635233772,1.8117522499999998,-0.0006349111560814385,-1.1504321387712795,1.457076032813256,-0.04771642,0.7730569985508103,0.6085555,1.507188,-1.685136,0.5939178085159201,46.59751409996278,1.2089115,-0.000380247249112989,-0.032219063043721304,-0.8123685263164662,0.11738070000000006,5.569970482450854,4.351399,11.371881,-7.076099,30.728103692352576,2401.71072151897,8.771263000000001,-1.2611829046489958e-05,0.5142341738992472,-0.9089237712372085,23.499352669999997,6.518704619999999,1.870658991814801,shaking_fb
-0.6951893700000003,16.026241787853433,12.455834,23.483826,-35.154213,254.7553098444732,19940.724296620727,25.3980655,-4.824145712182049e-05,-0.32254812691977164,-0.902680897293306,3.0713672,6.01134314395696,4.2885385000000005,11.535862,-8.84882,45.2081804076902,4269.161375799768,10.604629749999999,-0.00027512356154251204,-0.3967149764657374,-1.2362304878318193,-2.17188055,5.730108494458612,1.3308775000000002,4.72765,-18.13922,37.22286704815238,3277.175653052772,5.3808180000000005,-0.0002694238022298583,-1.3910082242413233,0.7074475014613468,0.09855171000000001,1.6241593487411503,0.7796434999999999,2.715679,-4.88822,2.6212270937461697,205.5457716024684,1.5973122499999999,-0.00012049144206561713,-1.1123783032297268,1.5048673037830609,0.30962718999999994,0.7487490069095613,0.565656,1.700162,-1.161448,0.65088782138187,58.44644605581358,1.10963425,-0.0008730268959569992,-0.0854335055136992,-0.8508750068235016,0.25295329000000005,5.57483028561185,4.3670975,11.371881,-7.197262,30.83193075316317,2413.8422155998724,8.44449175,-0.0002517751702050454,0.44330454888045356,-0.9400839532485361,23.51407992,6.57753463,1.3577394533512896,shaking_fb
-2.48509304,16.07250045363659,14.027777,23.483826,-31.190013,261.91770554128334,20945.538427967087,27.12256325,-0.0002896858130120462,-0.04020527372000632,-1.1595335646756708,1.9682926299999999,6.397198905503996,5.244648,10.575488,-10.540323,44.38908817552802,3770.946644401162,10.8809355,-0.00041135512523403963,-0.31502841944373633,-1.2758906046755458,-1.05308657,3.6294973342248316,2.084676,4.72765,-8.382848,14.150509714068072,1193.2086939260068,6.06357725,-0.0005898585742493454,-0.4897024795645145,-0.983231456674829,0.4280237000000001,1.0697433098479723,0.6927925,2.715679,-2.309438,1.31611152923654,117.13741522510686,1.38630625,-0.00012614801403607729,-0.04050224824406943,0.01476759090071944,0.23605971,1.1370518695253513,0.8357905,2.047944,-2.216972,1.33568227113647,108.70655548526848,1.661869,-0.00014128679090533622,-0.4763232047873561,-0.7196167060823466,-0.10773298000000019,5.509733183891735,3.9847545,10.495147,-7.197262,30.065194555080687,2349.97414983876,9.1620775,-0.0003701510533694637,0.4780020329884868,-1.073208173479778,22.8860269,6.67361625,1.865462808587327,shaking_fb
-0.7615805899999998,16.307193100966796,12.0352775,24.290373,-31.190013,263.8453063589617,20659.17913156405,28.1603755,-0.0002515530715242694,-0.287508303541956,-1.1507618466627492,1.75262147,5.506399502926648,2.9214495,8.121731,-10.540323,33.08891314807749,2826.813013066467,8.417526500000001,-0.0006194479003058809,-0.7825729533055679,-0.7508938861270349,-0.60513442,3.391428327645276,1.1315594999999998,4.373458,-8.382848,11.752955906808022,947.177972561379,4.8556655,-0.0002841902591985985,-0.8938899794520416,-0.4218319072102865,0.15366396999999998,1.0389518877660384,0.7607415,2.169438,-2.309438,1.09223943051785,87.17649582683647,1.59538675,-5.3794209439789114e-05,0.15532682118334498,-0.5111013692355928,-0.0609623,1.0538055181620363,0.585646,2.047944,-2.216972,1.1031174114289601,86.49451378448487,1.168841,-0.00030395060680487684,0.017038050869902083,-0.5441017668720955,0.48566977,5.4840363329617166,4.8473489999999995,10.495147,-7.027966,30.00978308172359,2363.0197758071245,9.3871435,-0.0001410563915792731,0.26517187914509716,-1.2421535181532724,21.950028820000007,6.523294079999999,2.098428132697016,shaking_fb
-1.0587399300000002,15.328510855201715,12.695553499999999,24.290373,-29.562405,233.73454282703293,18350.0940973415,24.842797500000003,-0.00036189445372915166,-0.12127395619387585,-1.0638517233477875,1.3321966499999995,4.675541696546389,3.3329535000000003,8.558223,-8.017882,23.416831168853665,1968.1870345066584,7.2703672500000005,-0.00014305716950051576,-0.5112162396629208,-1.0008610896440928,-1.85346071,4.438172084980209,1.241543,2.54773,-12.49459,22.935714344852315,2060.7934045249417,5.96477975,-0.0004661728166137383,-1.1454500412293727,-0.05130103706112399,0.19918113999999998,1.3428083873410588,0.924033,2.420106,-2.655584,1.8247761479940598,145.69205529060721,2.01301125,-0.00037353911910933285,-0.2033938899372737,-0.7326424442420225,-0.034358549999999995,0.8628513089918197,0.567992,1.930897,-2.650914,0.7382477675727102,57.83382997905351,1.1515725,-0.000487297074436438,-0.36200366470892786,0.35505871285593704,-0.3087176700000001,5.26446827602776,3.9819234999999997,9.617156,-7.027966,27.53278656677989,2158.4732250213756,9.7876125,-0.00020737107205723236,0.4203508557951125,-1.2089206773850902,20.640201570000002,6.4921441600000005,1.2240308238233024,shaking_fb
-0.5410057899999997,15.289408800373407,11.579631,25.508872,-29.562405,231.72104851509985,18127.175827567975,23.529989500000003,-0.00032461574897490406,-0.19528980800725398,-0.9643963349637787,1.31938466,4.72281371163174,3.2279074999999997,8.558223,-8.017882,23.822695542272317,1997.33680344413,7.037905250000001,-0.00016438070236460048,-0.4191621262579201,-0.9564163186995178,-1.6327991700000002,4.577116871712664,1.2239609999999999,4.557961,-12.49459,23.406531998296256,2036.9589437939594,6.13035325,-0.00012513720529402605,-1.0984795069268665,-0.06685081879584809,0.14353544,1.2727306391571314,0.8000105,2.420106,-2.655584,1.62424726958682,128.50403718866772,1.71538025,-1.7088255005225526e-06,-0.20605694174874342,-0.392171594843127,-0.18568476,0.9022350771307069,0.5925745,1.930897,-2.650914,0.84036668315726,68.35892699516587,1.3252332500000001,-0.00013912722035556947,0.037996234453736163,-0.10488896279886362,0.26316015,5.2075991645164805,4.74399,9.617156,-6.850613,26.917151432238033,2108.3148994291605,9.799664749999998,-2.9436301984492067e-05,0.2554715510417876,-1.3539092784148963,20.297244099999997,6.40540293,2.963644715431176,shaking_fb
-0.15408182000000023,13.930569317952976,11.4915695,25.508872,-24.391678,192.1438951143243,15013.875406850435,23.4062765,-0.00023046124591194033,0.10703164855698888,-1.0506077838719912,-0.5836659600000003,6.274407290858703,3.363255,8.423849,-13.722068,39.31517093592776,3098.750411519505,7.965920000000001,-0.0005926473240534851,-0.7669835521397803,-0.4356542708564004,-1.5074312399999998,4.132680207156024,1.5021365,4.557961,-11.069442,19.180604181000902,1676.2420358304444,5.594314000000001,-0.0005544041251817834,-0.9462512420218996,-0.33132180094932373,0.23124346999999998,1.0805294929083502,0.7078955,2.41079,-1.546838,1.2093420876119696,98.6631946261883,1.6328209999999999,-0.00019863578943034635,0.5463189228332895,-0.7667415515077529,-0.06879656000000002,0.9427329537571515,0.742373,1.507799,-2.290777,0.88459093454652,69.48193246861922,1.4060835,-7.967821724680124e-05,-0.2222232485689882,-0.7814897147573276,-0.4142435799999999,4.695497463788715,4.227122,7.35382,-6.850613,21.998817211693016,1732.0957590064602,9.350861,-0.0001789746518808774,0.2190482498868555,-1.4370286633310039,19.719822460000003,5.88383305,0.6300377224835388,shaking_fb
0.02477996000000059,13.63774188275746,10.784457,21.999421,-24.391678,184.12873767052744,14385.937541456467,22.84124525,-0.0001452589905611921,-0.03417150430856042,-1.1220695034274875,0.3221457899999999,7.040937541825026,4.2515035,10.642226,-13.722068,49.182831363216955,3851.030989334601,9.219397,-0.00041756434713183753,-0.5668237007408388,-0.6078097078811213,-1.2228519299999996,4.390200253509271,2.2085014999999997,4.539706,-11.069442,20.576486525958465,1724.5385900727938,6.252682,-0.00040582133166033196,-0.8201286775072943,-0.5039516161674831,0.16192899999999993,1.063109725815874,0.6673245,2.340045,-1.546838,1.14512126727406,91.51956723610532,1.686194,-0.00021791944481867155,0.6010989004680186,-0.7183001313987059,-0.12549495,1.01168858352325,0.93088,1.507799,-2.290777,1.0290276346064697,81.62433213336946,1.8022230000000001,-3.312489320697333e-05,-0.17511606749656958,-1.1092849917118606,0.17693239000000002,4.716789358146211,4.5772715,7.35382,-6.890096,22.056925901261252,1725.7436791687398,9.15241325,-0.00034220663850096505,-0.035674278117708395,-1.432152001025994,20.744498840000002,5.87403,2.4013419157651095,shaking_fb
-0.3337936899999999,14.218657109800434,10.610204,21.999421,-28.125884,200.25992613350132,15655.52591399432,21.18202625,-0.0003164354019662132,-0.19164934631879962,-0.8895088839019096,1.1036655599999996,5.873287267285719,4.039617,10.642226,-10.135553,35.36862595915005,2858.5740663053357,8.59163,-0.00028719955026887346,-0.250994180148781,-0.8603541027830195,-1.4197645600000002,4.89503208873352,2.1688479999999997,4.539706,-14.558991,25.73745716406554,2168.379656310638,5.93212075,-0.00022851521777761708,-1.0285384954248464,0.014009130383069834,0.30778562,1.3974470800720196,0.939321,2.598956,-3.478205,2.02806174606458,165.8556131080516,2.179341,-0.00020021641999402772,-0.24503461415687855,-0.24036581780825284,-0.14024891000000003,0.8907419517015989,0.725843,1.342293,-1.895486,0.8051567690321503,64.45233854650508,1.47598125,-0.0002069856757629592,-0.100724041314317,-1.0934702557025666,-0.14710749000000006,5.076337103977117,4.699475,9.252422,-6.890096,25.533147022896745,1996.4759712684795,9.6356605,-2.8412209098726552e-05,0.2269496035783025,-1.3230909874963428,20.34389509,6.354073719999999,1.6430001547119353,shaking_fb
-0.28934080999999984,14.489965458174698,11.2345665,23.594857,-28.125884,207.94322609363633,16256.909108237733,22.05733125,-0.0006215329085512995,-0.12721897307719446,-0.9186328193479749,-0.10647915000000005,4.611176388088484,2.3526025,5.778106,-10.135553,21.061656014628852,1646.4906738352533,6.562132999999999,-0.00032033025005093733,-0.7767118898368314,-0.6334546255308,-1.38869979,4.974476055036624,1.9746925000000002,7.463026,-14.558991,26.426445008657453,2215.610278516687,5.69651675,-0.00024303922460897732,-0.9102021367499876,0.04225249568855238,0.14008754,1.4221897402678447,0.8946365000000001,2.598956,-3.478205,2.02202193961314,159.7124560368487,1.9907495000000002,-0.000777638292892583,-0.12550629895935622,-0.36720098828820147,-0.14936828000000002,0.8906564808320788,0.6562870000000001,1.524441,-1.895486,0.80764716024986,64.90389821842459,1.404134,-0.0005751559519012525,-0.08089147500663506,-0.9114077932055142,0.8124832200000001,5.092883535884982,4.485450999999999,9.252422,-6.442065,26.338217065768994,2109.3765314278153,9.07530075,-0.0002303090835949796,0.1266051557082018,-1.4598276044846155,19.492696589999998,6.4377352199999995,2.8851097507975534,shaking_fb
0.10256459000000002,14.661701425800286,10.6966195,23.594857,-26.758645,212.8263533074429,16632.564083993562,24.878485750000003,-0.000548983628715775,-0.18284162895715034,-1.063916755177719,-0.19095554000000017,4.587936363214933,2.975319,5.778106,-11.37964,20.87513249043746,1633.864211979624,7.41547825,-0.0003407574551046277,-0.6600286513634841,-0.6654397580729614,-0.37664833000000014,3.6100489115851406,1.621473,7.463026,-10.063129,13.043992577088472,1030.1845119932932,4.38138925,-0.00018215768564168835,-0.6430223185655938,0.11876985640062587,0.10687764999999998,0.957383241794263,0.5879335,1.750579,-2.124515,0.91883967702133,72.80175360911906,1.165708,-0.0009214140199925782,-0.3851429355118342,-0.17773022328441046,-0.13302508,0.941707157231302,0.4919545000000001,1.524441,-2.603918,0.8956399181898601,71.4056239443846,0.97333775,-0.0004094434601100949,-0.3127203496404622,-0.17543974243046456,-0.31791204,4.841213857597917,3.8713810000000004,8.404379,-6.74845,23.3040461640251,1828.656608248642,9.06379375,-0.0003135524955749555,0.30581425017673497,-1.3388538421172689,19.0052072,5.870095550000001,0.09402310664096454,shaking_fb
-0.3319231399999999,13.938977991702865,11.402086,20.352809,-26.758645,192.46232934951254,15045.450419676392,25.07222875,-0.000209346745821042,-0.3325244254068006,-1.0905810047031914,-1.6232447700000001,4.290310860344991,3.97662,4.701614,-11.37964,20.85762318894259,1843.1447200752918,8.27933625,-0.0013823186486363037,-0.24876515528267326,-0.9702879188498885,-1.4609403799999998,2.9487194681985,1.4400375,4.490176,-10.063129,10.74234383102606,1006.2811719391555,3.6336505000000003,-0.0004818873550870209,-0.8478332666545623,0.36288827183785477,-0.02021519,0.9013334071626593,0.504596,1.750579,-2.124515,0.8046865456655099,62.924148285281255,1.2541072500000001,-0.0005163653155771272,0.10399262090541674,-0.43392030260274206,0.07767865999999998,0.8997874319081608,0.46932799999999997,2.240294,-2.603918,0.80755522261308,63.589871013491745,0.9902467500000001,-0.00045836653591365735,-0.38341456547548913,0.9609634622912626,-0.51803529,4.042549873793997,4.0104285,8.123055,-6.74845,16.44714794897613,1307.2313786926304,7.49979,-0.0010266390009169165,0.021346588285952005,-1.324935341684155,17.87924411,5.04088054,0.987857613303697,shaking_fb
4.2943792599999995,8.063301884120198,5.3037555,20.352809,-7.786393,82.80836213042996,7919.49366196693,12.260257500000002,-0.0010105775903534054,0.5478222417867826,-0.9172566510703981,-4.74275041,5.722099238094367,2.5115920000000003,4.701614,-11.088446,54.9086769452493,6058.611059359627,11.15099475,-0.0011904646638015702,0.4277030631268521,-1.5104217318286113,-2.1628724299999997,2.6942725201968605,1.9866635000000001,4.490176,-8.314913,11.864530517411172,1293.1526690143846,4.0241665,-0.0008731697353949711,-0.12951813714213362,-0.3038362636418297,-0.31458825,0.5157632424498976,0.331672,0.689946,-1.333664,0.36231737207787,36.04098764210153,0.66213875,-0.00023398380255061166,-0.10446049325574182,-0.6228683863244746,0.42860014999999996,0.9130714911385457,0.567979,2.240294,-1.50655,1.0090606410306902,93.18742983717118,1.3827965,-0.00011590663869975413,0.3369849431977679,-0.7919114655458035,1.10378841,2.2210979979974916,1.863091,4.412048,-4.515658,6.10229240759171,573.0717564161813,3.0359035,-0.0011546458000916923,-0.316764295357937,-0.5295428386448471,15.868261440000001,3.1647141100000002,2.342638327017252,shaking_fb
0.2830665099999998,15.353285752619195,7.1839525,24.083274,-37.312436,233.44627621664728,18251.63355563229,19.712995749999997,-0.0007149974453512359,-0.7570250669517458,-0.3381694128459509,0.7513633100000001,9.134583331549216,7.284807499999999,16.163555,-13.742718,83.17075333822078,6544.83904157526,15.987393999999998,-0.000414299403468633,0.11468818349415007,-1.2636682554646803,0.03055301000000001,2.3837559236138817,0.8606405,4.119074,-10.406547,5.626402866750692,439.79941643300356,1.7034365,-0.00020992242310676986,-2.188767109348859,6.4655790587500395,0.28635305,0.9768022838347872,0.6009264999999999,3.046733,-2.245765,1.02659934393211,86.67398902308597,1.19876725,-0.00044548143682097106,-0.04923816284277279,1.0576616658106754,-0.24869588999999998,1.3468880237413265,0.5154639999999999,2.308916,-5.009072,1.85781592071573,150.0047477671569,1.00165425,-9.074910627534304e-05,-0.9575567264038113,2.3715752195088697,0.7696896799999999,4.890362457739431,1.8729879999999999,11.839574,-7.051351,24.268910721885078,1945.0369591669914,6.74037175,-0.0009070021252174958,0.7870150244752318,-0.43572144501608223,22.285722830000005,5.543018999999999,1.6904341951926218,shaking_fb
1.1808367799999997,16.249169917755918,9.755848,26.262746,-37.312436,262.7895432869434,20647.62879717161,24.661063,-0.0005207068631773062,-0.6642619012655757,-0.5693660042188995,4.286936320000001,8.666707046260855,3.996072,15.755194,-13.742718,92.73851592718562,8684.497620164917,10.38473775,-0.0004410684666873817,-0.9094357629707742,-0.4347938728055123,0.13762766000000004,2.496672579063806,1.1726355000000002,4.119074,-10.406547,6.189981600175701,485.27496911111905,2.2814875,-1.1322476075253024e-05,-1.9614367610858567,5.285000697383481,0.045119940000000025,1.032872930766822,0.6124244999999999,3.046733,-2.245765,1.05819403518534,82.88236112678365,1.25674625,-0.0005179511254358861,0.41687199771567585,0.6313925796177884,-0.21107290999999997,1.3349222896009476,0.6266079999999999,2.308916,-5.009072,1.80874911741657,144.94421421735473,1.24101675,-0.0002635108658556227,-0.9983192263372039,2.6090808935078886,0.8064463900000001,5.884827126565532,5.2572035,11.839574,-7.185,34.93523418640993,2780.6645490818155,10.431207749999999,-0.000620385911927724,0.1954395893361598,-1.3025378716856437,24.427593619999993,6.9927933399999995,1.7715499172233382,shaking_fb
-0.21640737,15.94119322441098,10.9035685,26.262746,-44.050019,251.62725715361682,19663.608069602145,21.69255175,-0.0003100018483195039,-0.6802842985277321,0.12499552234843136,2.81229064,8.660301057102611,5.3623385,15.755194,-11.228955,82.15978489948769,7037.290364877886,15.89667625,-3.6142935803540257e-06,-0.30383400851500464,-1.380695159346566,-0.62228445,2.889580630270495,0.964489,3.172916,-12.756755,8.653417393357888,706.4225772726982,1.99710025,-1.4118957199068108e-05,-2.349268586458327,6.6406379553170805,-0.03706096999999999,0.9265660239416724,0.48374849999999997,2.435133,-2.941764,0.85131286625319,66.62056839847703,0.90826975,-2.8402730488586382e-05,-0.5577410652623643,1.798989660117,-0.11477436999999999,1.197940917264764,0.6609715,2.349335,-4.110034,1.43388497285347,113.06523993133312,1.30635875,-0.00013979837783818476,-0.8731430902623749,1.8731838583163443,-0.17066124000000002,5.67218805668684,3.5522560000000003,12.475732,-7.185,31.881105435754957,2493.0806354729307,9.610996,-0.00028207766280516355,0.6219249374751894,-0.8486854332953073,22.702180760000005,6.457761919999999,1.9235821548255474,shaking_fb
-0.39330451000000016,15.86729924792578,11.445032000000001,22.355708,-44.050019,249.40816200658017,19515.1228929763,22.328175,-0.0007804215985448121,-0.6997073576833287,0.05715950375067802,1.3591374099999998,7.450149220315464,3.7212630000000013,15.194801,-11.228955,56.79693067017899,4582.327878633648,13.64608925,-0.0001891767348588966,-0.3769028996892986,-1.3158371322381504,-0.70262336,2.7758687150539822,0.675913,3.062782,-12.756755,8.12207223800098,673.2634444131636,1.3337949999999998,-0.0002541725883710465,-2.6587326495433774,7.8827007008162475,-0.011065059999999991,0.8521055166537971,0.3605475,2.435133,-2.941764,0.7189454089495199,56.29531460925536,0.705085,-0.0007360107896989142,-0.742479006127499,3.4186702713842,-0.15510586999999995,1.2815613535262103,0.935488,2.349335,-4.110034,1.65003333873187,131.0048325251965,1.8497152499999998,-0.0007449402870569656,-0.6471543317899241,0.7804546392079152,0.8306368799999998,5.819956367802544,4.137431,12.475732,-6.442994,34.22313082831027,2728.2316724576085,9.887635,-0.0004808986910733857,0.500207650407681,-1.117432861219066,21.136239640000003,6.53883735,2.2041156709142626,shaking_fb
1.15281406,14.917398167232532,10.6598835,22.355708,-30.39424,221.63246065588854,17429.853780318117,23.84209575,-0.0007433610665223695,-0.4997028941901956,-0.8601343340109664,1.0613077,6.531133775473404,3.8082769999999995,8.815002,-12.173318,43.355525343277456,3477.4794517912214,9.83957075,-0.0006952548739175763,-0.7140625188532885,-0.8791090647412263,-0.8646165499999999,1.800117845543045,0.841113,1.908328,-5.182399,3.95558179379801,367.6038719130297,2.17599275,-0.0003722058913873909,-0.833481516768918,-0.3146805027797006,0.028624509999999992,0.6355285032403177,0.4255445,1.203106,-1.998459,0.4006768762193099,31.416155995565738,0.8484857499999999,-0.0006706906793657279,-0.5593425975492611,0.5622948163173764,-0.009367449999999986,1.1274501889873374,0.8389065,2.092989,-3.211668,1.25852023848061,98.46017293098637,1.4264354999999997,-0.0007148556217858156,-0.535872228410773,0.10395328129768444,-0.6641178500000001,5.327348205114907,3.7282020000000005,10.998386,-6.800998,28.537885028244222,2264.6106190195633,8.955397999999999,-0.0005256706501066047,0.7043805569727186,-0.7509755904708921,20.034692970000002,6.08797485,1.0448882886559676,shaking_fb
-2.8634546899999997,17.141928804724532,14.4495305,23.657855,-33.877205,299.10663867646514,24027.555323612003,28.674156250000003,-0.0009699756236336283,-0.19326133087740946,-1.1790847052898346,-0.27484683,6.618327961731638,3.8911015,8.626009,-12.173318,43.4397831389095,3412.02632656989,11.48752925,-0.0014259847817135575,-0.4917389301399215,-1.2610819339849033,-1.13531696,3.6070122202524773,1.7737295000000002,4.208558,-15.37272,14.16937638514384,1224.4481419714232,3.4266267499999996,-0.0018507330120475312,-1.9170590685133724,4.935603557193098,-0.11778366,1.2424461031400125,0.5976465,1.398438,-4.837309,1.5421085865787194,121.7741257431584,1.2454787500000002,-0.0005729040653645151,-1.8862293425724075,4.071723389886082,-0.09278652,1.5295940014505431,0.8830884999999999,2.187731,-3.677605,2.3248705694744602,183.13055345376233,2.21674775,-0.0012524029119147205,-0.6471258581559831,-0.6771678825555085,0.5494845800000001,5.218062205594125,4.494096000000001,10.355399,-6.800998,27.257824753293104,2160.5924985172564,8.6471,-0.001348249968416147,0.31803860644087706,-1.1382363929844317,23.08105722,6.623145560000001,1.7195578819821555,shaking_fb
2.7643063500000005,16.618799908962703,13.684508999999998,23.662194,-33.877205,281.06405490664764,22562.089025303067,26.94543025,-0.00017409411421925183,-0.5128512027434289,-0.7870781223985945,2.86927863,7.272244253024371,4.275221,13.936947,-11.046846,60.589440967464206,5379.957838319147,10.3436625,-0.0004456890121735131,-0.5039451007827933,-0.8303732448122445,-0.6721137499999997,3.8841330523453923,1.573065,4.208558,-15.37272,15.38736156557777,1239.2622641996638,3.076175,-0.0002420855784457433,-1.9588030419172877,4.291489914229161,0.07771590000000002,1.2191164609418759,0.5386774999999999,1.398438,-4.837309,1.47742225699886,115.96558636560883,1.02035225,-0.00019559510807211307,-2.315946812032462,5.896814924508863,0.09893078000000001,1.4626324859092814,0.989602,2.187731,-3.677605,2.1276881501802,167.38377048026157,2.2897067499999997,-0.0009156271836622198,-0.6874320973959276,-0.4600467729632163,-0.38876573000000003,5.104512088922983,3.813142,10.020792,-7.904776,25.946622022123712,2040.5052997326036,8.65101825,-0.0009492227558806024,0.43497214049575467,-0.8659519325763885,24.02515821,6.44728707,1.0924488859347727,shaking_fb
-3.0919304000000007,17.001102189158246,13.82629,23.662194,-44.912081,295.7071344881835,23862.068987283357,27.689017,-0.0006159293980891871,-0.20023678864137734,-0.6298901834394002,1.6645701700000004,9.20404495527109,8.065168000000002,13.936947,-13.070246,86.6380929541185,6988.550077061431,18.037504,-0.0006677043889397674,-0.17717588428599643,-1.596245987995709,-1.4007740500000003,3.186269996664922,1.882067,4.017321,-10.531195,12.012961265884007,1099.9129286189795,3.6203325,-0.0015937141834042538,-0.8961172457877394,0.8300509761289425,0.35491807000000003,0.7761024866596147,0.4744725,2.149327,-1.380173,0.7222785555137697,66.29279032729352,0.99561425,-0.0004060483334136697,-0.4323086222040591,-0.2416680171793839,0.19809659999999998,1.4866330386813653,1.0783800000000001,2.891994,-3.975151,2.2272192767135603,178.22142184211506,2.152259,-0.0013779348632086343,-0.5634235674730654,-0.1296883539034659,-0.64035846,5.767437582582791,3.4666575,12.340793,-7.904776,33.340761863592114,2638.052995998107,8.40709925,-0.0006109306145585275,0.8115120487775506,-0.48240361693948364,25.839949660000006,6.913473150000001,1.5256674192800046,shaking_fb
1.54165488,17.091104551237354,11.168801499999999,23.173478,-44.912081,291.56149600254076,22998.886164861477,24.67778475,-0.0009440080759251876,-0.8099250758253792,-0.10668926561394398,3.8492477700000007,7.702312217360553,1.9803039999999998,13.311612,-13.070246,73.54906575361457,6904.029362578538,9.097779000000001,-0.00018365974074829658,-1.0671931930908134,-0.370056962815847,-0.303899,2.987249116904462,1.1762264999999998,4.432415,-10.531195,8.92677531578302,704.6518089665489,2.31545475,-5.710008588862821e-06,-1.3940014501075024,2.5078978440061066,0.14040028,0.8899382672898329,0.775681,2.149327,-1.380173,0.80378245701504,64.33595701209047,1.5395755,-2.6662306539342463e-05,0.19779596296572335,-0.9625678775035857,-0.4683090399999999,1.5090002898228996,1.158839,2.891994,-3.975151,2.47362441288446,210.4139062853926,2.43542775,-0.000326316772539557,0.22815301600369617,-0.5034709139365274,1.5478564,6.0990191373193126,5.171476500000001,12.340793,-7.52206,39.22191352803429,3256.87380260318,10.3214995,-0.0010174895961084728,0.13797129645307502,-1.2278701948706643,24.597191429999995,7.4670691399999995,1.880455274226729,shaking_fb
-0.23755415999999957,17.343707610525666,12.758401,23.173478,-44.387451,297.8525837215452,23306.302645816486,25.2142725,-0.0009332210041004206,-0.6702242483570563,-0.29293994261669143,3.1598433999999997,6.450045683141851,2.7656020000000003,14.72434,-11.641357,51.171668733994196,4781.4875781488045,9.251157,-0.0006235225882091481,-0.6547481912104378,-0.5997886000618617,-0.4992928399999999,3.2954642293502143,1.0302545,4.432415,-12.583625,11.0007769821328,879.2538617598195,2.28964225,-0.00034830763159851997,-1.3375093487145813,1.728551150086921,0.3163957,0.8895942991998992,0.6624475,1.711887,-2.255948,0.88357047597576,76.94970424339049,1.34459775,-0.0007223414334727738,-0.47084089272525276,-0.3431324776363289,-0.21937879999999998,1.4066912067151187,1.146894,2.574188,-2.861916,2.00711940742858,160.6367108259752,2.26825425,-0.00031173710932033287,0.0016049431119064311,-0.9585849009586704,-1.09472596,6.015700506388461,3.7712555,12.772099,-7.53283,37.02519098423468,2986.612001899579,9.324437499999998,-0.00033518658496606475,0.8411520860997382,-0.4700642618951778,22.686633460000003,7.265705820000001,1.630407303097036,shaking_fb
