mean_acceleration_x,std_acceleration_x,mad_acceleration_x,max_acceleration_x,min_acceleration_x,energy_acceleration_x,bandsEnergy_acceleration_x,iqr_acceleration_x,meanFreq_acceleration_x,skewness_acceleration_x,kurtosis_acceleration_x,mean_acceleration_y,std_acceleration_y,mad_acceleration_y,max_acceleration_y,min_acceleration_y,energy_acceleration_y,bandsEnergy_acceleration_y,iqr_acceleration_y,meanFreq_acceleration_y,skewness_acceleration_y,kurtosis_acceleration_y,mean_acceleration_z,std_acceleration_z,mad_acceleration_z,max_acceleration_z,min_acceleration_z,energy_acceleration_z,bandsEnergy_acceleration_z,iqr_acceleration_z,meanFreq_acceleration_z,skewness_acceleration_z,kurtosis_acceleration_z,mean_gyro_x,std_gyro_x,mad_gyro_x,max_gyro_x,min_gyro_x,energy_gyro_x,bandsEnergy_gyro_x,iqr_gyro_x,meanFreq_gyro_x,skewness_gyro_x,kurtosis_gyro_x,mean_gyro_y,std_gyro_y,mad_gyro_y,max_gyro_y,min_gyro_y,energy_gyro_y,bandsEnergy_gyro_y,iqr_gyro_y,meanFreq_gyro_y,skewness_gyro_y,kurtosis_gyro_y,mean_gyro_z,std_gyro_z,mad_gyro_z,max_gyro_z,min_gyro_z,energy_gyro_z,bandsEnergy_gyro_z,iqr_gyro_z,meanFreq_gyro_z,skewness_gyro_z,kurtosis_gyro_z,sma_acc,sma_gyro,angle_acc_gyro,label
3.13349672,4.531745806880353,1.0159645,15.254207,-0.5161,30.150154551846644,3132.811143457921,4.2700215,-0.0012491691599460742,1.6183167355440642,1.4345178034529038,-5.826933210000001,2.7600128069527283,1.8314150000000002,-1.205331,-15.363891,41.49464462139856,5896.467701435859,4.199504749999999,-0.0009684911067958377,-0.8410233645238226,0.8792029666672669,-2.20084145,7.781494466502769,4.452168,14.907347,-13.158981,64.78984265892919,5454.53570163829,11.050175750000001,-0.000861838448566796,0.7874927543812209,-0.49783392164756624,1.08592473,1.3704980819475439,1.0085184999999999,3.748417,-1.653652,3.03871486192125,329.5336592761386,1.9518375000000001,-0.00014785450551202463,0.24530039291426897,-0.6931525763612569,-0.5639402199999999,1.3718028177879504,1.062132,1.707948,-4.174304,2.1810531129157003,195.26872478549495,2.09534925,-4.207173501058235e-05,-0.5519831266707816,-0.19420263652429304,-1.2861171700000003,0.9805627234756588,0.6408335000000001,0.805271,-3.140295,2.6059855970921104,332.82372226164244,1.26436075,-2.6254894644773665e-05,0.057306204623940635,-0.5298267941164942,16.1749421,3.9074120399999996,0.6934024944179159,shaking_lr
5.336703930000001,5.678401597411382,5.0951605,15.254207,-2.566435,60.40221109094673,6944.247778603713,9.98879675,-0.0002769275760751747,0.32474851399233606,-1.2063255653037424,-3.4698132499999996,1.0634729772492297,0.9718214999999999,-1.205331,-5.118654,13.159269015481513,1968.7809568988735,1.9468227500000004,-0.0004191393918020558,0.26094780008529206,-1.1073306814704078,3.6581021800000006,6.156563588838047,4.570905,14.907347,-9.991153,50.905954030493106,5026.461870616848,9.14813225,-0.0008533110702672667,-0.16408784586345782,-0.6602086209797955,0.4583740999999999,1.6658195053557656,0.9975015,3.748417,-1.691063,2.9573118937303002,247.85687933787852,2.48713625,-0.0010049797712712106,0.6678632863814047,-0.9145075354703791,-1.05045054,1.3324431934566658,1.0182455,1.707948,-2.65219,2.8610971521374005,309.7852340234888,2.3553887500000004,-0.0005561974647300202,0.5975190945132327,-0.970742159027354,0.05647831999999993,2.1382241889744895,1.9943525,3.06532,-3.140295,4.52947245612248,354.9745963702746,4.045679,-0.0013364961953857182,0.04117626232910221,-1.5546916740263306,15.22365244,4.85899258,0.7264607726007768,shaking_lr
-2.7289903699999996,9.583241110560254,8.313416,14.624981,-16.632369,98.36751352085348,8286.552726428237,16.18050125,-0.0012097038205023663,0.24977047744460762,-1.148325449202962,-4.30269311,1.612033762297687,1.1120319999999992,-1.866579,-7.458088,21.085834321121233,3093.8236687320255,2.074613,-0.00031855422841994537,-0.3265085702153904,-0.8208181804189132,-1.75811918,7.157172736283583,6.562731,11.901277,-12.591406,53.803853412314886,4457.163541149693,12.708759,-0.0012391410885786807,0.20945144273623448,-1.1196603463928756,-0.3390033299999998,1.0387400048077777,0.5740124999999999,1.723309,-1.913723,1.18311424736327,101.62612114108619,1.0837459999999999,-0.0010999181870574332,0.6381853724523031,-0.5347093575950868,-1.0241841699999998,1.4704257698681098,0.7978019999999999,2.027871,-2.65219,3.18948363932389,331.37510861142215,2.2414512500000003,-0.0009048816304309515,0.7327060058618979,-0.9205239396157547,1.0138862100000001,1.8779029757963253,0.9865560000000002,3.06532,-3.026073,4.519219637467811,433.81277678936067,2.665904,-0.0009465843392303684,-0.832310806412941,-0.654744237379941,19.247837060000002,4.52922751,1.1098506535756758,shaking_lr
-1.8381737499999997,10.376162643221866,9.024644,16.023793,-16.632369,109.96698642179614,8872.012242388377,17.99369725,-0.001125504498344861,0.22791023235786423,-1.2097882169732448,-4.16956955,1.6370090388154126,1.1057470000000003,-1.297807,-7.458088,20.03831083951893,2923.848538642224,2.0885292499999997,-0.00037349826471929205,-0.4888550005381113,-0.6908799599347688,-2.06979633,6.9284472598334155,4.644826,12.046575,-12.591406,51.80740446565171,4388.343794352665,10.844125250000001,-0.0009439979301020038,0.3271693386740731,-0.7596643229449183,0.61005269,1.1133558751480683,0.707164,2.599064,-1.913723,1.59932997625569,154.0559779518346,1.67771725,-0.00039102759438579764,-0.6108963561015309,-0.42568271594725804,0.6675964700000001,1.2352276678374396,0.5672280000000001,2.534022,-2.168063,1.9562145642336701,187.7498195858632,1.50183325,-0.0006772392515596053,-0.8891044560750091,-0.32191970967829997,-0.9907040400000001,1.9123005515796927,1.0706600000000002,2.854197,-3.127852,4.6018189604485995,436.4213892763472,2.78706925,-0.0007438498064672017,0.7481550474667663,-0.840773060402376,19.29940529,4.33152156,1.850659516375963,shaking_lr
6.38776298,5.613888784180728,4.40578,16.023793,-3.867833,72.00410569699714,8813.441833733632,8.54932,-0.00031358245502910773,0.14658068416066664,-0.9846036717798863,-3.6880207700000005,1.2807227078915357,0.8314610000000002,-1.297807,-6.755689,15.22534534791533,2252.152326503836,1.7020905000000006,-0.00031351547295098875,-0.5285911920645259,-0.27756413411143255,3.0953990099999995,3.9470133261730993,2.9808559999999997,12.046575,-2.666243,25.00462008612713,2702.050671714528,5.900921250000001,-9.605532725426499e-05,0.6206335756692378,-0.5056970763379964,0.09472403999999995,1.1487499810088335,0.8291255,2.599064,-1.709264,1.3154028974330398,103.86387688632038,1.8525305,-0.0012773128303274124,0.3988038760550665,-1.0671908206681437,0.09179307000000002,1.3295227738803614,1.135473,2.534022,-1.689869,1.7583804659038902,138.41248874092955,2.58791225,-0.0011645095183727468,0.16351576667436918,-1.5196429741945228,0.05224155,2.227352502653624,2.153349,2.864168,-3.127852,4.91421735891299,385.8612130585547,4.4033795,-0.0014779902591477796,-0.14454320602578472,-1.6647779095815005,14.388879739999998,4.31867082,1.1838546794686677,shaking_lr
-1.8239491899999998,8.721416977316323,7.9547355,15.020772,-13.439851,78.62927359900084,6426.1756887428655,15.77969675,-0.0013221100353030951,0.2807896891475112,-1.1781066511912004,-5.609413969999999,1.8140316085119894,1.3064115000000003,-2.132186,-8.579322,34.723328656744954,5171.515912581346,2.539911,-0.0005404028235617004,-0.015873673766934777,-0.9466211258822343,-2.08991055,5.460476885919615,5.1429694999999995,8.286033,-9.631873,33.88636585044705,2996.155336001142,10.08830525,-0.001225438806260257,0.3044994961062812,-1.2182348443246545,-0.45825013,0.8276138849295333,0.549975,1.335467,-1.709264,0.88808847674789,85.98058652772175,1.30892875,-0.0011853416725849575,0.5328598948660588,-0.7052179979102573,-0.5211380000000001,0.8627891458396584,0.5011619999999999,1.307124,-1.689869,1.0085458741209399,100.1844225792889,1.0942025,-0.0009968697728430947,0.6986101836320358,-0.5419795494537052,1.2267569999999999,1.660112703233334,0.8672585000000002,2.940971,-2.533865,4.23334718261132,448.78379825593095,2.330997,-0.0010280246168429387,-0.94344950658196,-0.40662506439063595,18.48542901,3.6197164099999997,1.4348569873206656,shaking_lr
-2.3889030200000003,8.269136406234962,6.995782,16.145449,-13.439851,73.40168837483638,6199.54802296805,13.78151075,-0.0013399901417504693,0.34315490460137044,-0.9807699027672756,-5.31377051,1.99199398032852,1.4701140000000001,-1.231069,-8.579322,32.164516650434074,4719.616297479701,2.7159597499999997,-0.000801338391461158,-0.029007171729096403,-0.8033301649618485,-2.54497047,5.136965632697679,4.012607,10.576386,-9.631873,32.601406445573936,3062.964275015213,8.06486825,-0.0014173081358746715,0.5249678428260575,-0.5169589933966163,0.6317326600000001,0.9987206211889211,0.48457000000000017,1.771277,-1.62244,1.38655460410678,139.56863132398482,1.1190327500000001,-0.0006050675241730882,-1.0043234912320322,-0.1975823014521434,0.50312964,0.7596040050052597,0.46522600000000003,1.916502,-1.145235,0.8243676966223599,84.38719663692378,1.1483045,-0.0012238135932805627,-0.5466464407160163,-0.6639087805112647,-1.01658745,1.9367840099082263,0.5922985000000001,2.940971,-2.955378,4.747071021523329,452.251248830165,2.6652405000000003,-0.0010388947037413682,0.9779324795623251,-0.5553097201699679,17.606968,3.9105558699999996,1.765309246237038,shaking_lr
6.4756899599999995,5.829877748441242,3.8523455,17.185729,-4.894945,75.58216027419742,9182.636298870666,8.220602999999999,-0.0006223475340148311,0.20194871890773028,-0.7916315736550743,-3.6124672799999997,1.551667368630529,1.18513,-1.070059,-6.684611,15.433514755714658,2225.323056154582,2.6225484999999997,-0.0003905987400032219,0.023489618218702216,-1.0204937921896973,3.05434594,3.7328848064580984,2.5743655,10.811467,-2.986467,23.12411380969734,2535.7159359076595,5.33615175,-0.00048441014879301665,0.3795086986790036,-0.8124238008498481,0.33543027,1.0434576125923887,0.957993,1.771277,-1.300585,1.1904292174165096,102.0787252004993,1.968192,-0.0013045360903314732,0.00910050006235112,-1.722073688629683,-0.01952670000000003,1.0758908667869456,0.8731300000000001,1.916502,-1.756404,1.1463470376761,89.86428173182006,2.1555169999999997,-0.001259053739201722,-0.07747215066642857,-1.4784319836302493,-0.2886311599999999,2.243794760684611,1.6982555,2.978801,-2.955378,5.0675767253179,403.72479437622115,4.6661975,-0.0013514710929328495,0.2133672181818481,-1.706365457986914,14.440621399999998,4.11245515,1.177574579941803,shaking_lr
0.05745482999999993,10.065556359579817,8.676886,17.185729,-15.777041,100.30557163708926,7879.00620490182,17.8342585,-0.0014528244362983374,0.0735098560985159,-1.134045280809723,-4.64819444,1.8537141550649952,0.9136130000000002,-1.070059,-7.44477,25.007605159048357,3642.847811298489,2.838102000000001,-0.0008395226532889715,0.6499032345574502,-0.831264420919176,-0.9101422799999999,6.3382574434806935,5.6055745,10.811467,-10.16608,40.60013131548362,3254.5205314365867,11.01863975,-0.0014412699368739877,0.0695059977778945,-1.1943205506822736,-0.69927089,0.6952684540945957,0.3718165,0.91602,-2.012804,0.96754401862789,113.83308983031095,0.8478589999999999,-0.0006078344299640296,-0.015141062534734922,-0.2575299339174393,-0.65270468,0.7200552637984505,0.43569,1.104543,-1.756404,0.93931818638852,106.68260516915264,0.9610555000000003,-0.0003691285045374619,0.8067718512997548,-0.18033978255104355,1.5884414900000001,1.3251826411120304,0.633231,2.978801,-1.614889,4.261694309135031,530.096263068571,1.8577454999999998,-0.0003446017018921659,-0.9021521147458024,-0.45991510776224276,18.523399630000004,3.5403236600000003,1.3936218987865812,shaking_lr
-4.17189194,6.9445383937479,6.307599,6.656778,-15.777041,65.14902972625326,6451.485174900185,11.7574375,-0.0007234230845539924,0.029233049500953352,-1.2180882183438957,-5.21586415,0.8773008345743301,0.5295675000000002,-3.087323,-7.44477,27.967199018056593,4311.065980853832,1.1526954999999992,-0.001009398664228064,-0.5991620040476604,0.009995155151192314,-3.8151498599999996,3.9174967987964164,3.6424785,1.484405,-10.16608,29.74868181115239,3461.404390880795,7.4343699999999995,-0.00039812445137003805,-0.15811687676828903,-1.442919784210118,0.25747651,1.2195361303054173,0.662635,1.88459,-2.012804,1.5386898425908897,125.62775597662008,1.78147675,-0.001100158632002072,-0.6315975792475806,-1.0023974247042369,0.43379386000000003,0.9318770714108776,0.3622130000000001,1.60101,-1.485314,1.0478880404328,96.88011170681206,1.6717144999999998,-0.0013207019263738757,-0.5700750753775404,-1.2354922766103533,-0.5188648,2.1997791775291375,1.1392000000000002,2.948206,-2.887367,5.0598588262709,417.3664051111964,4.185599,-0.0012498224687358605,0.49289107027355455,-1.4645137231486591,16.253319389999998,4.1829554700000005,1.817105906049837,shaking_lr
5.553473449999999,7.358251410067295,4.3390415,16.572514,-10.667365,84.44349253547472,9022.102287670421,9.009905,-0.0011378256915680583,-0.5266770433396976,-0.5245063458532502,-3.8350023200000005,0.9012421925018002,0.8313120000000005,-2.326565,-5.446659,15.511357909055377,2361.0365333393793,1.6747445,-0.0009034973341404923,0.2217997973640924,-1.305233551061132,2.12522357,4.503088213432085,3.3601125,10.042479,-6.7099,24.59160064585501,2278.263103587461,6.185382,-0.0011442630158679029,-0.028740143744635373,-0.7268121543389929,0.5892586999999999,0.9359890622378118,0.683703,2.089058,-0.810291,1.2145405849082198,122.18676093717599,1.7644275,-0.0009674543712993387,-0.23282848074837859,-1.528313755807258,0.3684515900000001,1.1095822910376887,0.37280800000000003,1.60101,-1.857221,1.3546177061521303,116.83489709935448,1.7460165,-0.001367635092176772,-0.7650858753503721,-0.9578041761369431,-1.0164045400000001,1.8006103213394085,0.757071,2.492564,-2.887367,4.24285374295348,413.17691966149425,3.16404,-0.0012612317220690526,0.7264732420112058,-1.1073373154302226,15.90448864,4.01669851,1.6053144505357109,shaking_lr
3.1090549199999993,9.645482342694933,7.4608555,16.572514,-14.678701,101.77119882258357,8729.82472062184,14.471079,-0.001278784591552443,-0.42973370914185866,-0.9962080736763217,-3.70816491,0.9498889817877347,0.5992234999999999,-2.326565,-5.909788,14.643753186699827,2218.664068522625,1.1139025,-0.0007882095444890576,-0.6166782113447338,-0.2768044850845981,0.8514633599999999,5.815559107415993,5.0593965,10.042479,-9.57546,34.2075103079531,2734.6192086196834,10.12399375,-0.0010620008644232814,-0.19374054948952016,-1.0435363618364843,-0.5275466400000001,0.8862631803386112,0.4747675000000001,2.089058,-1.645026,1.05591325795096,104.29667469584537,0.8619055000000001,-0.0006194298519092476,1.2275993535603191,1.3675339819449288,-0.7948558699999999,0.8301217918892547,0.48375049999999997,1.578019,-1.857221,1.3140070215491897,152.1151135529853,0.9529354999999999,-0.000899875086764591,1.163211877797614,0.7235238411647376,1.4531731199999998,1.6760064236306722,1.0273670000000001,3.56447,-2.102633,4.892619673421301,547.4941745295237,2.33426775,-0.00083861016936679,-0.8123482834552977,-0.4518791727771361,17.51532833,3.9181032499999993,1.268280751478497,shaking_lr
-5.91198569,6.471987529821855,5.738602,5.595549,-15.416713,76.41933115907267,8701.653424889311,11.6031245,-0.0004912937042846158,-0.013671495488886496,-1.316260924755431,-4.74995388,0.8053914425985638,0.5915175000000001,-3.094805,-6.094141,23.204230684179944,3575.6240872342023,1.1894690000000008,-0.0005847578433009793,0.2535080673374219,-0.7244152412721783,-3.99313784,3.485823204201201,3.0039750000000005,1.662474,-9.57546,27.97460358607792,3431.2727488340283,6.75901775,-0.00017799467515591306,-0.12290763379967085,-1.411407481684965,0.05065458999999997,1.1629006882480288,1.134061,1.685043,-1.645026,1.34138051810853,105.21122910787822,2.34752675,-0.0011598803906039605,-0.1662234568519736,-1.5788590069544264,0.05598853,1.2581606791984643,1.2085854999999999,1.928609,-1.691988,1.57027332722589,123.47493994931763,2.4055222499999998,-0.001512648770620131,0.0636450029881777,-1.6722382366845,0.38596512,2.316799812271941,2.4637895,3.56447,-2.361618,5.462854830298482,439.68576559597057,4.96147575,-0.0013156566289263118,0.040060757245721515,-1.7264122928007413,15.977347050000002,4.38347608,2.2458957118028895,shaking_lr
1.8667814999999999,10.604317207822817,9.989356999999998,17.799543,-15.416713,114.81190117842813,9283.27763577228,19.865177499999998,-0.0013985517745965946,-0.10653414597284154,-1.1872158704263769,-3.784761479999999,1.7229314575171732,0.9722700000000009,-0.829591,-6.094141,17.263227339721023,2469.2583642273617,3.0518214999999995,-0.0009817569337932466,0.4267472804359847,-1.418416216431119,0.4038554300000001,5.499464224137283,4.3308865,9.159617,-9.160365,30.104764893380707,2376.586047534651,8.20429275,-0.0013489827792941443,-0.11242714063216695,-1.0108854666746339,0.93531763,0.6426558592773649,0.41914949999999995,1.80513,-0.573379,1.2836955569177098,168.66701162258968,0.971277,-0.0005787690896588612,-0.642646128417872,-0.673957114905233,0.72911804,0.8141192636804602,0.578579,1.928609,-1.270047,1.1877753899941004,134.36571884980833,1.1110145,-0.00047919530007990913,-0.7728734777450391,-0.057281649769789666,-1.6075464299999995,1.3011926390828294,0.694824,1.719662,-3.409883,4.260376785769051,534.8678475718721,1.50177775,-0.0006562939285423431,0.816467596852366,-0.24446572310377768,17.34969457,3.79631832,1.7684139173655813,shaking_lr
6.46075319,6.913204709513549,5.6625115,17.799543,-7.054515,89.05580714417908,10223.471577720496,11.35278125,-0.0008637802418126925,-0.03139071312369405,-1.1092795442950076,-2.99606653,1.4658402740092125,1.341052,-0.765396,-5.306449,11.10361548400457,1568.870272147911,2.9018100000000002,-0.00045444293778587407,-0.06942712395341337,-1.487563854684664,2.5314193600000006,3.736137696375524,2.7400889999999998,9.159617,-3.998766,20.22722161359824,2082.32149351783,5.218013,-0.0009225758313805724,0.0539240131276668,-0.9025299622814389,-0.06463428,1.0471141605294787,0.7238389999999999,1.80513,-1.560031,1.08966117468066,85.68502274702965,1.5824635,-0.0012354853802311655,0.513249395806186,-1.0563940874419366,-0.47020372,0.8973517981764043,0.543333,1.575143,-1.668941,1.01827938549536,97.16784379043273,1.48362375,-0.0013013698597000153,0.618445714057466,-0.9568396445746461,0.7486287099999999,2.5162170520515503,1.4468040000000002,3.479437,-3.409883,6.828479715940911,578.8086133099026,4.734128999999999,-0.0012516631966132087,-0.47651394989961554,-1.4049809754655662,14.449906319999998,4.26106691,1.1254034785190055,shaking_lr
-4.696269979999999,8.485608217711599,6.7920505,12.491747,-17.176302,93.34044308129883,9028.479275337633,13.45227075,-0.0011075962547916856,0.23478889957958818,-1.012653281307406,-4.26065387,1.300868602557915,0.560168,-0.765396,-6.5652,19.828507929855746,2967.9526612670616,1.07249025,-0.0007416762048680772,0.763073289030067,0.5575618507168403,-2.8868370500000005,3.925278294155143,2.713678,5.522825,-9.944466,23.587559742952543,2496.9819535933425,6.9532105,-0.0011613908238874069,0.27869445387187713,-0.860787227663343,-0.2910689999999999,0.8916491504612241,0.5321510000000002,1.553589,-1.560031,0.87180898820404,74.94082083677642,1.5171065000000001,-0.0009623831429613542,0.6684736229566192,-0.8290094775722254,-0.36626731000000007,1.067088867606665,0.48893450000000005,1.657179,-1.668941,1.26144360723101,109.45701621518968,1.714826,-0.001215039545714272,0.769888462421526,-0.9429051136031572,1.28271232,2.1742894097353953,0.8598284999999999,3.479437,-2.608231,6.3256099887944,623.7544061169128,3.8377264999999996,-0.0009741550959748914,-0.7571540174674931,-1.0869022774193982,16.73021278,4.28095625,1.652409256413441,shaking_lr
-3.1804410599999993,9.860378839682838,7.732448,16.963817,-17.176302,106.37000548957832,9133.427760044691,15.19596025,-0.0012926825097340205,0.28625255221395535,-0.9027184969752593,-4.36874758,1.0219307273245006,0.36683650000000023,-2.12231,-6.5652,20.119854405091342,3063.0180712275424,0.7367037500000011,-0.0005050628402695074,-0.02555548972139363,-0.13033866845750408,-1.6354612000000004,5.429624928675317,3.789797,12.350789,-9.944466,31.86075193413696,2712.8290994899235,7.425803500000001,-0.0014267916400784117,0.7806140378085339,0.13216856514252528,0.86567733,0.8574207614137971,0.46735050000000006,2.011982,-1.045531,1.47721589815831,173.97877292633092,1.13886825,-0.00011296377047498384,-0.810239787091615,-0.5675941955476103,0.76994527,0.7958438115022327,0.43108799999999997,1.704609,-1.257779,1.2198494173787102,141.7886715283779,0.8646842499999999,-0.0008556248098951539,-1.0809578481972175,0.09732191881488061,-1.3419428,1.7147471388487103,0.3447395,2.968215,-2.777541,4.71176465115978,509.41784758426513,2.02926525,-0.0008803802133311374,1.2198289236762503,0.04432612892769194,17.647694780000002,4.17334366,1.97344666369293,shaking_lr
6.88575692,5.315026855486112,3.6981434999999996,16.963817,-2.296638,75.38066373112109,9593.950100194656,7.7793225,-0.00037960313558691805,0.3621112239718768,-0.8767282698598611,-3.5795738700000004,0.9385399582304449,0.7476645,-1.793407,-4.938639,13.68539777145003,2070.275330348774,1.4977972499999996,-0.00010158798523676419,0.3736223554701035,-1.158624851283861,3.50089144,4.210514526740905,2.4244285,12.350789,-1.833809,29.807389128762498,3286.257427725968,6.45555275,-0.000168233555955367,0.768131097849417,-0.6518874995806598,0.33646523,1.1371396726693794,1.080902,2.011982,-1.231648,1.39336461980599,117.97602176388568,2.1626849999999997,-0.0012050893260894607,0.08419541726890174,-1.7415159024185694,-0.045695549999999995,1.2292846803179445,1.078172,1.704609,-1.689294,1.4981175003015503,117.65706296098485,2.4848985,-0.001373225412689529,-0.06319107707135525,-1.7604290287742939,-0.31425193,2.165750002116878,2.1561915000000003,3.223759,-2.777541,4.742322616461289,379.9721414900329,4.33914825,-0.0014704519305777162,0.215230927328376,-1.5805704137180845,14.613249249999999,4.24312773,1.2127907517560799,shaking_lr
-0.5726077,10.674541542796605,8.159065,16.434698,-17.543213,113.13425835550098,8918.498622776482,18.42716025,-0.0015136038052310891,-0.23451489488298818,-1.2058478595144462,-4.076025049999999,1.2171760398885343,0.7743749999999994,-1.793407,-6.359598,18.08068254518545,2710.6695831275933,1.4943187500000001,-0.0005390081690731393,0.04669582755208806,-0.6790567657175277,-0.54006308,6.028602148486799,4.3742065,11.876886,-9.656115,36.272271556471324,2876.2887916598156,9.14581275,-0.0015453624376243473,0.380836419717784,-0.7066233144714942,-0.6340031399999999,0.5031550370063977,0.21517599999999992,0.688163,-1.249205,0.6525933228821199,82.43833529544533,0.4853925,-0.0009088651392103034,1.2039885880862453,0.6414521836859679,-0.8763734599999999,0.6435469189188365,0.38799149999999993,0.950843,-1.689294,1.1780415518737999,152.03860597957382,0.7221675000000001,-0.00010735085974818997,1.0841757241513443,0.40582299740985484,1.78108179,1.348650267340013,1.025775,3.394262,-1.495177,4.97292131082993,636.4311339297765,2.1190479999999994,-0.0005499672030224743,-0.6817712647273348,-0.5750142817346653,18.15688621,3.6956358899999993,1.2199346209537798,shaking_lr
-6.111488499999999,7.45939115428604,6.508338,6.240487,-17.543213,92.43638291434664,10141.409693482672,12.89879825,-0.0006434980580944627,-0.033631182028452763,-1.3342006442029768,-4.49562385,0.8762289063842053,0.7312040000000002,-3.058892,-6.359598,20.970733126108247,3217.3114414565166,1.4480430000000002,-8.010542119119667e-05,-0.40604362987450654,-0.7972266722412069,-3.6305838400000003,3.2575260545133156,2.7335800000000003,1.918953,-9.656115,23.686500255143898,2880.8808916277494,5.46199725,-0.0005842626153452708,-0.1548035103191891,-1.117822557982228,0.28431443999999995,0.9576650640361797,0.580973,1.509631,-1.249205,0.9887858519191801,83.82548507629771,1.93868275,-0.0013481990498454464,-0.3747656725909403,-1.5144858773645198,0.4325268299999999,1.0941506011949147,0.6593705,1.789429,-1.37793,1.3722733413840893,122.076542294807,2.20169525,-0.0011263064312014145,-0.3025548846364591,-1.5742523518224056,-0.29434499,2.484133387070133,1.3835119999999999,3.394262,-3.123355,6.195848471047069,492.59282532156425,5.15295975,-0.0014255735674688127,0.40281050875659774,-1.5747144974745344,16.17842113,4.3668480800000005,2.1197915965275644,shaking_lr
4.0039237299999995,8.418872171946054,5.0612675,16.816274,-14.309096,86.2000397967491,8009.838354616049,10.996119,-0.001353331312678567,-0.6073864750058822,-0.6014900473360254,-4.14666153,0.6598052630299867,0.5034555000000001,-2.438494,-5.423765,17.62579139965279,2720.3791878810666,0.9894409999999998,-9.685206271222186e-05,0.07426948956568595,-0.527298203422184,1.44285821,4.057018951871247,2.6259900000000003,9.169194,-6.732645,18.37664856224845,1603.00957445439,5.5069255,-0.0012838721092692303,-0.2231756385348322,-0.7773036231929384,0.6405530899999998,0.7155166087283531,0.2815985000000001,1.509631,-0.798344,0.9171526383010099,103.84283303111825,1.38078125,-0.0011590305832068744,-0.6920064166204871,-1.1539646376000818,0.6451868199999998,0.912216282032789,0.5954459999999999,1.789429,-1.087066,1.2400831924553801,129.50098902909275,1.5016740000000002,-0.0007868260304854447,-0.5494003026527209,-1.0687921525367916,-1.08646181,1.849873366543888,0.6295754999999998,2.477058,-3.123355,4.56821042211441,450.0429902606301,3.4910412500000003,-0.0012213809880749955,0.7179115164985124,-1.1600223145266517,15.97638201,3.88786552,1.7715069534819423,shaking_lr
3.2511687600000005,8.77649915114724,6.514099,16.816274,-15.243583,86.82676628258724,7636.13489321604,13.57411325,-0.0012824183668427652,-0.4048722423685992,-0.9140456915608661,-4.847180999999999,1.0283944528717834,0.7006779999999999,-2.438494,-6.585102,24.54218284595148,3753.08439913984,1.5604952500000007,-0.0003333988629343213,0.08397399955379509,-0.7465576993194669,0.72736897,5.17292137756959,3.1483755,9.169194,-11.390564,27.020590041250173,2162.9766785405095,5.960814000000001,-0.0014227065238990718,-0.6350908866778924,-0.4918123369247942,-0.63508332,1.0090302321263556,0.5895295,1.258854,-2.275837,1.41129141259374,141.92566224181178,1.1187222499999998,-0.0009801055791085294,0.424115091449207,-0.6485104918108271,-0.4034638,0.6033331933262519,0.395967,0.98129,-1.490434,0.5231538706580001,53.63585462092613,0.7851115,-0.0007760884776288424,0.39619572395095703,-0.537727870900373,1.2985163800000001,1.6196672247738237,0.876544,3.060099,-2.415259,4.28323348894478,466.793638494509,1.7620180000000003,-0.0009665934315752395,-1.0631457762838448,-0.022168982717023944,17.35179701,3.585126,1.4760127430688004,shaking_lr
-4.81070979,6.4510103564359165,5.472247,5.594651,-16.011074,64.34230795625687,6834.796695645566,11.205088,-5.1594312786445597e-05,-0.16980358817549435,-1.1626157034127347,-5.0189813999999995,1.1012660873400086,0.9098714999999999,-2.348712,-6.592285,26.390833418719886,4030.2258487746303,1.8119620000000003,-0.0006461481571396246,0.3981701078911279,-0.7092896225099516,-3.8751276099999994,4.085370549566881,3.351284,2.565537,-11.390564,31.53996399578003,3637.480268530461,6.388104,-0.00037652053429488316,-0.3980395120219535,-1.0156697912675863,-0.14893378000000007,1.3794587442955393,1.436266,1.624115,-2.275837,1.9060586337663799,150.8447872215291,2.54676475,-0.0010611111868891402,-0.02294175380957675,-1.6413087847472885,0.07974963000000003,0.8617650310859561,0.745161,1.52315,-1.490434,0.7415725825996902,58.46700673916308,1.508759,-0.0006730221621394494,-0.06744627424158157,-1.269385609031054,-0.15222137,2.607523015581044,2.4704515000000002,3.060099,-3.581071,6.75435585950169,531.5246837331783,5.58792025,-0.0013989865329996375,-0.09107543137779353,-1.7185894039292058,15.72225686,4.508061619999999,1.0464898261784699,shaking_lr
3.3149741899999996,10.567488200212585,7.284732999999999,20.047997,-16.011074,121.54414267338207,10381.099911110434,16.3461875,-0.0012322536706315544,-0.33871618576409007,-0.9980964844181024,-2.95360989,1.8708704073138696,1.2966095000000002,0.702698,-6.592285,12.188965902458946,1634.2801087811215,2.8335752500000004,-0.0007178580614774717,-0.013287125173747309,-0.8239735498517082,-0.1632695999999998,5.5383007103925115,3.581875,9.708039,-11.345224,30.392703973431022,2386.47441272356,7.460108,-0.0013927471996696707,-0.3447637501077375,-0.44197054616092846,0.6486680999999999,0.8229191886624951,0.471623,1.624115,-1.115486,1.09119433511586,118.12241228827378,1.5440085,-2.2962854226151604e-05,-0.6255323215850175,-1.0139572852423215,0.40637331,0.8144391374283311,0.43865999999999994,1.52315,-1.47132,0.82181726456961,77.18422650043492,0.9594322500000001,-0.000854142538339049,-0.9454555772019351,-0.14633778113838014,-1.2860939599999996,2.1103849237504546,1.49849,2.66755,-3.581071,6.063224955077761,603.2197633819319,3.80318925,-0.0008022845352059554,0.5981671024855846,-1.1706896344877786,17.010343340000002,4.01226369,1.3954446763939046,shaking_lr
4.0360254300000005,9.714708221015076,7.1166149999999995,20.047997,-13.342138,109.72130153287,9865.030400616368,15.22199725,-0.0011713382368708808,-0.24569711704251687,-1.041679726965274,-3.2377492699999992,2.0141027185692084,1.7062425,0.702698,-6.367828,14.499063998723932,1952.8002741377375,3.79656775,-0.0009892022097095358,0.2680216691678364,-1.2638246405662779,0.11161167999999985,5.544104341441895,2.9872154999999996,9.708039,-11.687445,30.442179186419345,2385.595643559283,5.83908375,-0.0012161243378489529,-0.5275244554524936,-0.2839280888430613,-0.5320278500000001,1.022858919415402,0.823447,1.377891,-2.4059,1.3188315985129901,125.19298144197442,1.3901537499999999,-0.0005494670238628632,0.19660726370401227,-0.8329979612036471,-0.32667579999999996,0.7398804138369492,0.5548615,1.362888,-1.47132,0.6486658748173797,59.01941984468596,1.05783925,-0.00033085416162072673,0.5467686076270653,-0.5551650095207994,1.2866584,2.077906663491044,0.9991534999999998,3.792216,-3.462254,5.930008979449241,593.3570013173535,2.529374,-0.0010331626124563565,-0.9460316800013389,-0.30571372902534133,16.72969812,3.9153121299999993,1.6989556926346856,shaking_lr
-4.31894077,6.202934118324449,5.8060884999999995,6.322189,-13.483096,56.744877134278966,5890.761321554128,11.54891775,-0.00034389333441430073,0.020572781459260857,-1.3357680087857156,-5.144673969999999,0.644878131658457,0.3583075,-3.653103,-6.607248,26.87937938423995,4167.818631970623,0.7158287499999991,-0.00033212807867990336,0.06387558116802917,-0.02190896508749729,-4.09812207,4.164304350097017,2.8402715,1.684471,-11.687445,33.962620913655655,3965.6962504137286,7.349675250000001,-0.00028773929065084016,-0.42449849727785505,-1.2893445223444817,-0.014936349999999956,1.3390071389068632,1.2192815000000001,1.57747,-2.4059,1.7752338114144302,138.8713070388114,2.64961325,-0.001072509048612077,-0.26649113958148557,-1.476458992182992,0.16884892999999998,0.851524410010531,0.7839875,1.385015,-1.320969,0.7463528437974901,60.78628949153672,1.5367685,-0.0013339146221837044,-0.14580540543150347,-1.5304374789344415,0.19006491999999992,2.5574678490691056,2.7031925,3.792216,-3.085296,6.511360054846541,513.1068122455414,5.40055675,-0.001324266905131694,0.03837803295391763,-1.6808952648782491,15.791857870000001,4.372222799999999,2.4815849368923555,shaking_lr
3.35347893,9.510723046825584,7.703718,17.09849,-13.483096,100.79513527863907,8782.849494080603,15.93805,-0.0013137198825796854,-0.3331331855580531,-1.1027647503552802,-3.4776526900000007,2.0566459363616194,1.3267625,-0.127042,-6.607248,16.28156281474147,2217.708716769143,3.5161842500000002,-0.0008966135646670311,0.29910319219788123,-1.4650386850316424,0.16218170000000012,5.533501501295479,3.9760955,8.70427,-10.348488,30.339745380005823,2385.536686911788,7.6743517500000005,-0.0015126618050245936,-0.3303218949335117,-0.7731816558883642,0.81034519,0.647667598864918,0.393586,1.57747,-0.580726,1.07193791238939,135.07445601765974,0.7862467500000001,-0.0005955197821814058,-0.8588549685522935,-0.37027015476633274,0.6790247300000002,0.5626646412499244,0.27874549999999987,1.495098,-0.72722,0.7745001674793498,96.58654672718453,0.607745,-0.0008198608045124305,-1.1123858803488822,0.3729175842404806,-1.4730012199999998,1.5918211268347924,0.8162150000000001,1.892223,-3.085296,4.6782881489607,535.1857783820394,2.3175634999999994,-0.000734067209552699,0.8282291156818231,-0.7161152684627861,16.75673598,3.7139453600000003,1.5574272051801326,shaking_lr
6.593079189999998,6.415477077518171,4.9054199999999994,17.09849,-6.0078,84.21545587645058,9981.296517666638,10.110713,-0.0009929437160861355,-0.1978246806226395,-0.9786162953441071,-2.99168663,1.741876989923549,1.430685,-0.127042,-5.822698,11.953982985665629,1633.3108549864794,2.7648537500000003,-0.0003910754804923545,0.07821509915713369,-1.2359958737875598,2.4911458299999993,3.3590036378447623,2.2486045,8.70427,-4.12925,17.375883930990188,1843.1752138155568,4.40600475,-0.000706267893810529,0.11159905234636576,-0.7579651006822798,-0.39890926,1.010761729967484,0.892822,1.254771,-2.08693,1.17055147973294,104.47920042186304,1.7143567499999999,-0.0014603303419654368,0.11240634744557351,-1.1512282062215609,-0.31598539999999997,0.8647937464658986,0.5488394999999999,1.495098,-1.51283,0.84023631470042,73.657458259856,1.449557,-0.0013055592987343116,0.528890934694698,-1.1181238939131897,1.0396872799999999,2.2429223570947334,1.1739765000000002,3.360893,-3.057968,6.06134333314964,559.7176305676066,3.73470825,-0.0012924381709228622,-0.7324668915438762,-1.0188348581551885,14.13760361,4.10247784,1.4684738941242954,shaking_lr
-5.26202276,8.257345970015292,6.979322,9.403526,-16.194081,95.19080837060052,9617.572642268773,14.031630250000001,-0.0012044477904756623,0.27160559671475215,-1.2384009809540104,-2.9683910499999997,1.5580396680967654,1.3449430000000002,-0.818667,-5.822698,11.214558157009549,1564.6209044581274,2.75306975,-0.00020400678863880642,-0.388111364098313,-1.209182298483937,-4.02589947,4.998540215275938,4.383708,4.854992,-11.754782,40.943416783439794,4470.787873999,8.844517500000002,-0.0010643698757719603,0.09398331659477788,-1.2836113215449783,-0.7125506800000001,1.171844398957213,0.731091,1.817293,-2.164141,1.8672155739821799,185.86972698034614,1.5045575,-0.0011504490101766991,0.7532181436241403,-0.5824585216506564,-0.40074856,0.9490512181321978,0.3344904999999999,1.68445,-1.51283,1.0522906408339,95.06488978148616,1.27548775,-0.0012153004953504916,0.9695369709996631,-0.5129171740708673,1.5082106799999997,1.9543750231517931,0.5601825,3.360893,-2.574237,6.05608536907444,651.9986756003435,3.00777775,-0.001207023295671043,-0.9236937514629541,-0.7436130493608402,16.60971112,4.50429504,1.6618807831505138,shaking_lr
-4.60772491,9.389389749139724,7.349600499999999,14.77417,-16.194081,108.51016230887213,10160.24415313733,17.12486375,-0.0012504460726872817,0.48238673381476216,-1.0335610648639377,-2.0793835899999995,1.0333681887010235,0.6909514999999999,0.0621,-4.345027,5.381007429646331,758.6520264304718,1.65734825,-0.0007999997194530087,-0.24019538778206118,-0.7787124159402392,-3.96275533,5.153903783508051,4.807332500000001,5.526865,-11.754782,42.00052677300544,4513.56003801887,9.011812500000001,-0.0010512231921721163,0.1493348617719838,-1.3082624293701748,0.59118778,1.3400923054182587,0.692601,2.356516,-2.164141,2.1273919043921397,193.84567722562772,1.52196475,-0.0011276615293839885,-0.8025673525620444,-0.4816302286374414,0.7475417199999999,0.8961214730559249,0.4670304999999999,1.749064,-1.185238,1.35382198066776,149.6161528708286,1.190588,-0.0008769131468777246,-0.9506637343769313,-0.4327562653512622,-1.4359138600000003,2.1652888657960125,0.971346,2.966904,-3.887439,6.703439726956878,685.8937031921578,2.9328355,-0.0011575151366428266,0.9001122642381982,-0.5308096875765789,16.79085345,4.79463218,1.4429213511232768,shaking_lr
6.9016199500000015,6.6505042567377455,3.7799955,17.00377,-8.008605,91.41927273443602,10871.265052207169,7.882535000000001,-0.0009764647113273735,-0.4206106680244682,-0.4945514220534384,-2.37975118,1.4154863283770533,1.0936265,0.294936,-4.399944,7.6467812090755185,1040.308188374294,2.1551175,-0.0005545576586288821,0.3870507096690478,-1.1859786277913749,1.55202033,3.0286828817360005,1.957709,7.357232,-5.178808,11.48995790287279,1086.269842006795,4.1107320000000005,-0.0004923048115188161,-0.1372212935930686,-0.4071133707741006,0.29347088000000005,1.2442629300459007,0.9548314999999999,2.356516,-1.996719,1.6188334941035196,134.00905038898182,1.84756575,-0.0013458981474927538,0.044744342686195294,-1.1289467241206343,0.3613176,0.9969342830768229,0.9138695,1.749064,-1.217533,1.11448959319592,97.54030213067313,1.97372075,-0.0014485249997739538,-0.09544811730813302,-1.609225553497404,-0.8168195399999999,2.4358002139471076,2.140956,2.889573,-3.887439,6.54098561636794,564.7475014106557,4.82255425,-0.0011643487751578042,0.22549747005559043,-1.627049708464243,13.444842999999999,4.436746640000001,1.5853536392652532,shaking_lr
4.39336603,7.2430727740817415,5.805116,17.00377,-6.128408,71.2391472520957,7087.444629476716,11.350050000000001,-0.001158808519931857,0.2607230418289849,-1.1046095427968665,-3.9587137099999996,2.230231249255802,1.9663130000000002,0.294936,-7.57286,20.59560634864749,2836.1944968374705,3.7770402499999993,-0.00115014444455673,0.2935832158594713,-0.9209688527302657,-2.94463312,6.362519357447287,5.635876,7.357232,-13.871107,48.74770025955345,4496.488630127511,11.17789125,-0.0010733319745962712,-0.08935478121094023,-1.238320331662963,-0.71632001,0.8872971730799931,0.4945220000000001,1.415184,-1.996719,1.29253766734859,141.15322049276776,0.9421092500000001,-0.0007753113436913381,0.7831211598940044,0.07602554252024873,0.15494057,0.9500168847629776,0.6247895,2.230119,-1.217533,0.9175133407533299,73.56039174151056,1.5297264999999998,-0.00011477524203966648,0.49326688678430386,-0.95822951924128,1.4049672399999997,1.3305939069453474,1.057596,3.031404,-1.208921,3.7267082892213006,445.37649571756964,2.4441837499999997,-0.00025444575989619453,-0.4692674632446118,-1.1543797411321284,16.47592178,3.4846183,2.4255354845979658,shaking_lr
1.06464908,3.7819845025897645,3.1289975,5.834819,-6.128408,15.2938503735957,1283.7131134709448,6.08841775,-0.0003321757046980083,-0.47008070728282225,-0.9834244067336608,-6.821801799999999,1.436475247959611,0.828992,-3.820098,-8.735843,48.57980632510385,7431.839670416569,1.7886557500000002,-0.0006016965279816603,0.7640321316027788,-0.6877987666042142,-5.275906190000001,4.62621996627715,3.7894225000000006,2.673575,-13.871107,49.023078190297845,6005.578066425842,7.36134725,-0.0005695664336638239,-0.11513991540762589,-1.0765419091555626,0.34094188000000003,1.3232445924256107,1.0349169999999999,2.2082,-1.938839,1.8497078544077197,153.8699342612667,2.26788325,-0.0010957979668590953,-0.37482361801796404,-1.2752718863659063,0.5485541399999999,0.7758635566241628,0.563851,2.230119,-1.239593,0.89685626042366,93.60756232839486,1.0968247500000001,-0.00043823180510773544,0.13927776165643072,-0.551336864111565,0.35675070000000003,1.4641636464169987,0.5042675,3.031404,-1.125913,2.24960849360472,186.10320634862296,2.4470625,-0.0011844027495709697,0.8829102654389336,-0.8941582155820491,15.91301649,3.1720557399999993,2.533274429654407,shaking_lr
2.0358465600000004,2.1349992527710766,1.3522750000000001,7.281815,-1.521066,8.657310807103562,1000.2284064975936,2.64477025,-0.0001868036446240367,0.46987430051606816,-0.3501954438015251,-6.33828828,3.4987803437482743,2.8229135,-0.256479,-12.200103,52.29294757524667,7225.29010245007,5.5055415000000005,-0.0006642111926470681,-0.0012144990587132892,-0.9551572010429386,1.3875087099999999,10.115166509764471,5.9415105,19.744233,-17.278654,103.21860800538401,8234.830426378403,10.77686225,-0.0013024329654575677,0.21942176810872738,-0.444250816709328,0.98760658,1.545545899958532,1.2689095000000001,3.625002,-1.679069,3.3401917644491403,337.21522695937296,2.53271225,-0.00038966623132487976,0.06614275388456038,-1.1921319463006934,-0.43218042000000007,2.0407205939212467,1.545832,1.979859,-4.270176,4.30967505246112,351.36199688118376,3.1569789999999998,-0.00040185115771399117,-0.5521474460661471,-1.0048104942855698,-0.31937801000000005,1.00877937684456,0.359897,1.002991,-2.538362,1.10946178610699,94.64635706174275,0.97304125,-7.653773566850847e-05,-0.9014923211993685,-0.2104635048320591,16.17260027,3.91691145,0.9724451641927635,shaking_lr
0.9402539000000002,2.3351435084790935,1.422006,4.041861,-7.398682,6.28244364960534,567.8651304098996,2.8236609999999995,-0.001918936677557729,-1.4566835389328172,2.526521335466101,-5.06286711,1.5699301817642857,0.8545805,-0.651971,-9.192687,28.072657341378047,4200.402702147845,1.6581340000000004,-0.0012582793156990068,0.4940991189702084,0.4000748569399937,4.6542053,9.351779069277013,7.7316255,19.744233,-12.896667,108.24284101751003,10149.283384705679,14.68240475,-9.38868308588582e-05,0.16396569844046927,-1.1247111909152199,0.23130152000000007,2.1021255521468825,1.3943075,3.625002,-2.849681,4.4282429117732605,350.9597922506437,4.19325675,-0.0013077112059174324,0.2542519265188043,-1.5345109805506398,-0.9766131699999999,2.091768842055031,1.9387165,1.951602,-3.662025,5.28551520352377,488.0618914079042,4.34880375,-0.0010564502121079942,0.13971057031308484,-1.7016552598110761,0.53868316,0.6244025008732769,0.325492,1.879302,-0.276527,0.67615924513342,75.52622251683148,0.9257517500000001,-0.0008556014852569763,0.7215457078878852,-0.7367226092380261,15.648599350000001,4.54303709,0.24556361165269894,shaking_lr
-2.17972155,4.488889778686844,2.8975075,3.771017,-11.257087,24.69981616628163,2301.0958107807023,6.635642500000001,-0.00038785189820576675,-0.6530312273794195,-0.7636199317051307,-5.649874469999999,2.097709547993304,0.9889550000000003,-2.222118,-10.106075,36.277463021022626,5328.659287970004,2.407145250000001,-0.0007639734782197306,-0.5941614187119435,-0.36328722159416005,-2.60978909,9.06447861911344,5.324554999999999,18.724602,-18.585888,88.1541240042841,7437.734204220078,10.492850749999999,-0.0012621810330502477,0.31534430506383854,-0.35841119639811536,-0.20248251000000003,1.7408500690919262,1.090856,2.544193,-2.849681,3.0412525402826898,241.48114810565957,3.61195325,-0.0010221044883173284,0.2942138695094902,-1.5301670860615009,-0.7516848099999998,2.3170140699965796,2.0803995,2.638528,-3.662025,5.879898712141231,504.16117054781165,4.6065335,-0.001062257074394267,0.14896971174559187,-1.7078297674991993,0.05206926,1.2121532868250284,1.3015355,1.879302,-1.899036,1.4573336426900605,114.27501317615626,2.41923675,-0.0009168794616215482,-0.1290823726883657,-1.3873416750583365,16.927357410000003,4.9362942,0.4846563080037943,shaking_lr
1.9916870000000002,8.217201096069736,5.575571999999999,17.348086,-11.257087,70.81398702068616,5845.8522023780015,11.07610025,-0.0007826398381187717,0.16463399715709542,-0.8309303151758138,-4.1988102000000005,2.830202020051186,2.057667,-0.55725,-10.106075,25.559950135182838,3375.638499611366,4.046425749999999,-0.0008535516077527186,-0.6680267392696104,-0.5822449409382844,1.2427716899999999,10.460599439612329,8.328005999999998,16.146945,-18.585888,109.87438070312302,8716.653402203312,16.37675025,-0.000954265375801811,-0.3312808900097361,-0.9846563895027445,0.6625389800000001,1.5773887418941355,1.2850225,2.832713,-1.882051,2.9022315906432596,261.03088043483854,3.02787175,-2.5427969552956176e-05,-0.20713414950476067,-1.6042923244750147,0.42995015000000003,1.6439180384170489,1.0697960000000002,2.638528,-2.706075,2.8602989833476498,237.95253248698342,2.62397425,-0.00042070681345322364,-0.5760431005214988,-1.0259729279464063,-0.25227745000000007,1.6085418100673903,1.165822,2.454666,-2.459437,2.6251765989660303,210.09633159727844,3.0758845,-0.00042927787624035967,0.2906331047308076,-1.4673505760985284,19.83246521,4.5773842,1.7725426732826,shaking_lr
1.2436291599999998,8.910887186320233,6.328174499999999,17.348086,-13.521404,80.15648483045514,6388.5329232964505,11.723021,-0.0008530963264305048,0.08512997607755304,-0.8945368520186459,-4.78807259,3.2033445787087267,2.7059715000000004,-0.55725,-11.318289,33.08444145215246,4377.370939855888,5.03478225,-0.0008327102461607322,-0.42839885068918987,-0.9609512603178403,1.4109509099999997,9.591566943803226,8.3434935,16.146945,-14.082993,93.068957343514,7429.095663802883,17.25837775,-0.0007048372511731126,0.006143992174062945,-1.2346007703541257,-0.2810093099999999,1.436798262667377,0.6436409999999999,2.832713,-1.882051,2.12271158743463,172.08735223512284,2.30764025,-0.0006299641235786559,0.8933334757230578,-0.5305574669191353,-0.73642091,1.3984873659878732,1.082173,1.968113,-2.706075,2.47852500038465,236.0183362639369,2.6360745000000003,-0.0002705000230514577,0.3408738974608492,-1.3119189290802196,0.7244870300000001,1.6408156088938655,0.5151944999999998,2.454666,-2.459437,3.19023456040407,290.2531623352457,2.4471585,-0.00020516050016589817,-0.820061983312587,-0.8915923210033805,20.37418774,4.36703137,0.7037899482295238,shaking_lr
-1.6937674899999993,7.0696442371276,5.0264025,13.63827,-13.521404,52.348919253336845,4324.336670486608,9.81727425,-0.0012691374978324945,0.248761050664952,-0.571373212560284,-5.454411849999999,2.951369825457562,2.3800605,0.19812,-11.318289,38.37408663757561,5323.065527129511,4.273052,-0.000672742273162353,-0.1272232753069188,-0.8106321220801957,-2.9464557100000004,6.081061420409857,3.6088099999999996,11.104307,-14.082993,45.2911161698008,4220.886201504188,7.24272175,-0.0008739149267234621,0.08138314688046559,-0.21974181150267702,0.43661996000000003,1.3855838646922292,0.8533375000000001,2.517648,-1.692862,2.0912812091049,178.74885065584348,2.77904075,-0.0012192974937556137,-0.37185048818897576,-1.4801386842452238,0.35020461999999997,1.5643426910271665,0.9777340000000001,2.286252,-2.415584,2.5453396502897596,209.3110145461493,3.0340135000000004,-0.0013939023962055994,-0.4721900026660403,-1.390265866249548,-0.48816095000000004,1.9434314164977038,1.2289084999999997,2.350725,-2.843377,3.9774575270288697,330.09257618272824,4.15798425,-0.0012646220807201987,0.29624159024833774,-1.6618466521822166,16.60119831,4.74901927,1.8273983907355618,shaking_lr
4.85150399,6.29633048837265,4.8274585,16.355091,-8.086566,62.78443080760878,6746.4674603677,9.61369225,-0.000716681934113986,-0.06225304617518866,-0.8735930963619007,-2.922147049999999,2.102772310119741,1.6638205000000001,0.506673,-8.016086,12.916378256147947,1676.5783253361883,3.2495672499999992,-0.0006991446558052828,-0.4384290234534254,-0.6386815765381857,3.60368051,5.655035600284515,4.1739165,14.447511,-5.769128,44.64614658223428,4503.645781304213,8.97575,-0.000514185543462945,0.3334566298374247,-1.0102316888882654,0.31617921,1.4238833250414291,1.1052785,2.517648,-1.643584,2.10713857893395,172.84313623430822,2.96893825,-0.0013127456002312201,-0.1928554869235826,-1.6060641393044934,0.26451834,1.5251959061769855,1.378735,2.286252,-2.064458,2.3729302788932,191.36213812548323,3.08855825,-0.0013992323896589297,-0.19154738382667078,-1.660909143849907,-0.18836698000000004,2.181682447674086,1.5327434999999998,2.995427,-2.843377,4.74762303861862,374.59361277002336,4.6535925,-0.001359034678678194,0.21263433963175307,-1.6857606981795645,14.58403551,4.86426727,1.5437860481571668,shaking_lr
-0.44387751999999964,8.939615373179883,7.098732999999999,16.355091,-14.145093,79.31458304295151,6226.629198677416,15.190424,-0.0012483246128967551,0.2504146093060806,-1.0540880515664564,-5.282054779999999,3.518104823073781,2.867057,0.506673,-11.389517,40.15339362959449,5317.679366581645,5.69670375,-0.000670925299429739,-0.13372354506661746,-1.032139450894066,-0.30957778,8.010240678184699,5.661239500000001,14.447511,-14.420127,63.61815456709018,4986.796374209789,11.86349375,-0.001126373875496778,0.2838978152089354,-0.9516744401204056,-0.46143056999999993,1.1159076139941904,0.7453985000000001,1.559866,-1.681363,1.4457154758710298,129.5956800205688,2.364883,-0.0003197857167750525,0.38559891963166537,-1.56118385775711,-0.3680745600000001,1.3868567978271367,0.8531475,2.41433,-2.229143,2.03961694162174,169.9631952152657,2.03496825,-2.0272419805818707e-05,0.6143394909808506,-0.9867550424740683,0.9682324100000002,1.7672853859745214,0.9881384999999998,2.995427,-2.554951,4.029538658898731,388.15945419035745,3.1888179999999995,-0.0005317637975847663,-0.6226507495259939,-1.1381500507574238,19.663219140000002,4.24648588,1.2586146607372242,shaking_lr
0.28801201000000015,9.548319881159955,8.0358385,17.742531,-14.145093,90.34165934532918,7070.077329600396,16.54015575,-0.0009000533491830564,0.20252788468822044,-1.1820162210172929,-4.81372049,3.760961951097282,3.5009965,0.205452,-11.389517,37.17529140547129,4715.244996561789,6.617012,-0.0005502323670301989,-0.343013810390053,-1.2761684473910164,-0.05491852999999983,8.294386076779956,5.8577135,15.012093,-14.420127,68.11188803171176,5328.674148240891,11.620108,-0.0010184914127789547,0.31094872255968115,-0.9755107861839187,0.56211167,1.2750323948470708,0.8707369999999999,2.618568,-1.681363,1.92542006138055,175.12589694498035,2.22536425,-0.0002982162027217402,-0.39115784698895945,-1.1191980679548872,0.61070977,1.2861850982561955,0.9444215,2.41433,-2.229143,2.0106958090799893,186.2246872615892,2.29243275,-5.252940975296967e-05,-0.4592323677180935,-0.9984586078808526,-0.6108093500000001,1.9426119633322303,1.3760825,2.648552,-3.097105,4.109091889728109,350.2109932245195,3.60644,-0.00037867824483342114,0.416835364242535,-1.343992111370828,20.02803115,4.37610123,2.155782398576406,shaking_lr
3.78330105,7.612252878530909,4.8750435,17.742531,-12.403162,71.68029678276618,6723.707930765737,9.79411825,-0.0008819296545268405,-0.24953383038198682,-0.48128988429409647,-3.19904396,2.7263670762651726,1.3735985,0.205452,-11.271004,17.59262891820976,2176.397709275335,3.31275225,-0.0010418876411121495,-1.3210909110994804,1.3473987384591988,2.640826890000001,7.25664497220889,4.5508535000000006,15.012093,-11.255441,59.10627395310479,5165.91940364832,9.3041665,-0.00075316862471398,-0.16786590091312076,-0.7014957610037671,-0.13619134,1.5763784048448826,1.2864355,2.618568,-2.258868,2.47866726759968,195.1883755426836,3.3462802500000004,-0.000666808145187274,0.3060240691687692,-1.4258446308090986,-0.31887108999999997,1.4276349105406632,0.9315760000000001,2.235706,-2.217654,2.1194387954542897,173.89933824257582,2.7614935000000003,-0.0011299355932428419,0.45724232070763127,-1.3228729518264257,0.50163856,2.234078300934755,1.188444,3.148528,-3.097105,5.192836041039319,426.0141167277576,4.19843625,-0.0010934866823395018,-0.47832598268049853,-1.4424726958336296,16.251324639999996,4.92996659,1.007017917220591,shaking_lr
-2.7531239,6.662286645842244,5.3362265,8.491186,-12.722189,51.52189392660541,4617.905195812478,11.78964775,-0.0004367438393856703,-0.09800380421656278,-1.2213308480860152,-5.526185539999999,3.4492367646870328,2.3964465000000006,-1.243488,-12.368595,42.31698853878508,5691.9239456346195,5.46263275,-0.000171938400850409,-0.6832987619128128,-0.8222412903587619,-2.5155906399999997,5.40035815762706,3.5756655,9.054721,-11.255441,35.20042581639826,3246.569031155678,8.6625205,-0.0008402646712766935,0.18863798899511713,-0.7916826033336153,-0.16624565000000005,1.4317349991032697,1.507699,2.414059,-2.258868,2.05700407272459,163.516352764043,2.90804175,-0.001398401584370535,0.1007584653569442,-1.3743870252436157,0.07408291999999998,1.7008084337237368,1.3429825000000002,2.520229,-2.217654,2.86931011397926,225.15569545828305,3.5225589999999998,-0.0012031436841969361,0.16884506668035257,-1.6949568233097794,0.2795263199999999,2.2485318542500052,1.8991490000000002,3.148528,-2.929078,5.08347150815394,404.119343330275,4.68760775,-0.0011999938891188843,-0.2005727407277979,-1.65476381818227,16.24732032,4.93550791,1.8697161753705562,shaking_lr
2.08573128,8.934644935864121,5.9329065,17.780988,-12.722189,83.37987630103322,6861.741794433534,12.06584175,-0.0010810319389973216,-0.15724890878587483,-0.8697869273599079,-3.95604266,3.65938009221464,1.442207,0.224905,-12.368595,28.90742556044374,3483.4893644899057,3.657404999999999,-0.0010176935417780242,-1.1544413469487258,0.1207443165243669,2.4466392100000003,7.5250755689376945,6.207940000000001,14.622886,-10.346243,62.04653811895017,5322.346297093193,12.881702749999999,-0.001290321701291643,0.15301973403515592,-1.1067182980549015,0.39275696000000004,1.4563214771549053,1.298337,2.880732,-2.226381,2.25392155200286,188.3873504773609,2.582684,-0.0010010624624000003,-0.253714697651022,-1.0191000110047939,0.56375895,1.4659274170874679,1.3359905,2.520229,-1.932832,2.44527791395215,215.97326731990663,2.79465625,-0.000697740062167983,-0.26539970959122705,-1.4608073361559415,-0.38506299000000005,2.126957519227194,1.5843025000000002,3.138043,-2.929078,4.62698231197887,373.25866965325275,4.24602075,-0.000786460041321907,0.3937396808739261,-1.4112600415558636,18.05501749,4.6349301800000005,2.197013738625561,shaking_lr
0.46011175000000015,9.658966911890033,8.053271500000001,17.780988,-13.822175,92.57438820942467,7257.267334550183,15.785196500000001,-0.000904688047253551,0.1425342361996216,-1.1524006814834964,-4.69719323,3.3308010525075993,3.1224125000000007,0.224905,-10.21531,33.04691753482971,4307.160650152418,6.09249475,-0.0007502829104319852,-0.173309293304346,-1.3323288941215854,0.8853009600000001,8.804310143290339,7.2631095,14.622886,-13.243078,77.52447611802964,6123.756411429843,15.492318000000001,-0.0005907654122563989,0.13751433362846954,-1.249351646673607,-0.42157786999999997,1.4498686410289743,0.85648,2.880732,-2.226381,2.2588257859505503,190.41186119280405,2.4801715,-0.0005410772855001722,0.685204457137093,-0.6895934952754246,-0.49901386000000003,1.1922829420867305,0.7989585,1.907039,-2.044123,1.65633806032318,148.85953145205912,1.87083525,-0.00019330461517291588,0.5553007827058486,-1.0924907560880732,0.9403643499999998,1.8071060323066819,0.9552910000000001,3.138043,-2.391747,4.11726100063013,390.7460695392428,3.06032175,-3.2029565097127825e-05,-0.6156136192806215,-1.112993016476543,20.5623407,4.3754953599999995,0.9974555269504197,shaking_lr
-1.00897794,9.374373601464367,6.213327,18.978388,-13.822175,88.0181280990403,6969.625200469316,13.03107875,-0.0011313975029508458,0.6036215420433217,-0.590153013927448,-4.56082247,3.7469771766600024,3.2617255,1.812411,-10.21531,34.70054118564376,4337.702761422205,7.4138325,-0.0007658301348233344,0.18370043990603302,-1.268518442984952,-1.3438788799999997,7.2794844784861095,4.796259,13.340043,-13.243078,54.266995773905016,4385.789606902272,9.716343250000001,-0.0009421819518826074,0.42970417969333496,-0.6188707349872864,0.50167786,1.5312272840583818,1.3425635,2.575646,-1.847462,2.57289110070454,220.73248933077699,2.9009607500000003,-0.0006035541685711237,-0.26174554399895333,-1.4576783748244446,0.24878791,1.2352812879266726,0.8120875,2.087776,-2.044123,1.5725560858609302,127.80219502986591,2.258984,-0.0008283218711616845,-0.46204235233287894,-1.1155465950223964,-0.7638149700000001,2.2009158621906644,1.879515,2.638159,-3.795292,5.3790036345141505,465.9325601653347,4.37996375,-0.000587604691025485,0.2322673613855511,-1.4632129258306663,18.71980795,4.67748294,1.7046582844483034,shaking_lr
4.78708352,6.927534101975236,5.23784,18.978388,-6.45372,70.42699007414514,7292.442807543145,10.40404075,-3.203504717193358e-05,0.31003258315119714,-0.8756211717090401,-2.59738559,2.6615335793632933,2.2782325,1.812411,-9.377789,13.75933528727725,1602.6344265029945,4.61830275,-0.0007678671877756656,-0.3451038617896312,-0.6709607094087082,2.8805193600000005,5.359489410524412,4.0684965,13.340043,-5.911733,36.73427725744287,3518.3419794527317,8.12535875,-0.00036284942248509356,0.23708919202190212,-0.9034243489492648,0.24829042,1.5409477022487625,1.1006845,2.575646,-1.717468,2.4124227555188598,193.46487375854386,2.8094015,-0.0008839241462264313,0.25008537581135093,-1.6106967407298403,-0.15517653,1.2487698531621005,1.0508295,2.087776,-1.701866,1.56791164016767,124.94198530217164,2.42648575,-0.0014162007729463836,0.2874437859502716,-1.4872769389426233,0.06030352000000003,2.6657945045063456,1.9145924999999997,3.146736,-3.795292,7.039032251378059,550.9267461125551,5.32876375,-0.0011063586408976308,-0.18508887044543126,-1.7070814307055475,14.410934829999999,5.07721705,0.28916156368976215,shaking_lr
-1.2089700900000002,6.801107060525797,5.2240735,15.026608,-10.391733,47.25411535476116,3817.415157167152,9.905673,-0.0015158621647629197,0.5413047921285928,-0.728155049710459,-6.2183792,3.5398965281222945,3.1513679999999997,0.498892,-11.65662,51.0737986305068,7012.259466874188,6.0595,-0.0007579649356805074,-0.037575043016816974,-1.2229825185781924,-2.1229626,5.409008743150685,3.7237315000000004,9.454852,-10.181492,33.4717720286445,2972.035895650798,7.7234324999999995,-0.0011947410385247702,0.5581409496093498,-0.795876767573783,-0.4536256899999999,0.9955049814325818,0.6238955,2.046392,-1.717468,1.1868961330044898,109.20286089294197,1.6947824999999999,-0.0011455955684391665,0.754354969522642,-0.43731628136682765,-0.21476204999999995,1.3557293614614512,0.6445415000000001,2.132602,-1.701866,1.86574481863359,149.5288638422047,2.4474335000000003,-0.0008451035065717898,0.57666355866308,-1.321162670139248,0.8952796399999999,1.9534909822576216,1.7024614999999998,3.146736,-2.255123,4.579491381382759,421.01685338230294,3.8919759999999997,-0.0010550506402975553,-0.4723054671142548,-1.2911178989130279,17.281524250000004,4.236502259999999,1.5732395096833196,shaking_lr
1.3492179500000003,8.750118795842802,7.860911999999999,17.125276,-10.391733,77.61932222855006,6217.970208359999,15.332430250000002,-0.0009940811889530552,0.3130859861785268,-1.1961726940007125,-5.692281810000001,3.7033633334912595,2.8721445,0.2273,-11.65662,45.9798231845059,6125.694147800128,6.5307085,-0.0007067717341388579,-0.2920285645655955,-1.2664507397890077,-0.13750799999999988,6.58204242752766,6.252383,10.264391,-10.181492,42.90895814266046,3358.0158381547826,12.63435175,-0.000821872844161135,0.10713843548139303,-1.4529782803711968,0.49033335,1.027486091230371,0.9726045,2.382633,-1.320217,1.2855971851173704,119.22660101773333,1.6709372500000002,-1.312870650800882e-05,-0.06504920021152343,-1.1497162446250193,0.6355200300000001,1.0744665495703554,0.8024325,2.132602,-1.541556,1.5468192910153702,152.40194304749124,1.8477384999999997,-0.00021258012952503138,-0.46351960161131645,-1.0293598366042316,-0.8008124999999998,1.5691791553276504,0.5834065000000002,2.144361,-2.415364,3.0790006494559004,290.6866345648294,2.9636067500000003,-0.0004455326634232208,0.6401992812004166,-1.2116756509701958,19.16029622,3.7173000800000007,2.0141027329929706,shaking_lr
3.20447285,8.461962289115368,5.504943,17.125276,-15.216798,81.15740397097362,7157.523656448299,10.932223750000002,-0.0011996257625218523,-0.40726090409978316,-0.38877228083817794,-4.148454179999999,2.4090371513169617,0.9591025,0.2273,-11.089792,22.95509748002056,3140.611158995049,1.8595462500000002,-0.001082277369934424,-0.9371051108248603,1.4881186904654458,2.4708835000000002,5.247108435200838,3.3452235,10.264391,-10.014197,33.362090732020484,3086.9055673890375,6.51125575,-0.0009221074126082251,-0.7077403547829796,-0.14055747595317847,-0.08437727,1.2276630550746606,1.0468480000000002,2.382633,-1.869691,1.4992045347199496,117.8692760470302,2.0516275000000004,-0.0010706620887895976,0.3387638170126606,-1.055815298137689,-0.39940064999999997,1.0881715941854335,0.558581,1.681307,-1.646693,1.33179712342857,116.64490230863834,1.994134,-0.0009304869560545491,0.6601722297370468,-1.0968586868297556,0.96129513,2.2768172090721692,1.2828500000000003,3.635199,-2.415364,6.05614596445363,545.7382168185596,5.149139,-0.0008932496452472703,-0.398495685602673,-1.5374101330662702,16.53223491,4.43923331,0.9000893567941105,shaking_lr
-3.8923135,7.124200611534236,6.033837,7.665785,-15.71943,65.39679639213318,6293.81573648759,12.47865325,-0.0005576554865821267,-0.23440892548248946,-1.1737370105143128,-5.893948429999999,2.598248823611875,1.1819125,-2.9112,-11.525537,41.422016075405956,5950.071026333126,3.187580250000001,-0.00010427024641073699,-0.9777275604404674,-0.4539585582262853,-1.8525658500000006,4.266290272238184,3.38802,5.032762,-10.014197,21.451220588710445,1944.574819699511,7.49860225,-0.0005797143800481,-0.16503131702932242,-1.1566476020009118,-0.012676729999999985,1.1733120177059853,1.1578615,1.756297,-1.869691,1.3630551794678498,106.68960825165667,2.2582465000000003,-0.0011702946116185933,-0.04674388430337903,-1.3140829951947743,0.06665255999999999,1.3538308173596705,1.274296,2.309355,-1.646693,1.81897186696698,143.040950556683,2.559918,-0.0014631715695875766,0.13830531635494905,-1.667311065196132,0.36052424,2.5959443918541307,2.6395704999999996,3.635199,-3.071538,6.801515740370499,542.7133101781193,5.3960965,-0.0012906530059214956,-0.046974075516449124,-1.7511614657319354,16.17800972,4.726013129999999,1.9579533435537377,shaking_lr
2.3534134399999997,9.588550349387562,6.7024925,17.902793,-15.71943,96.55944964428554,7996.377455773183,14.19582,-0.0011937538377410311,-0.40144108907012865,-0.8100749994386058,-4.29121149,2.8219122024663923,0.9062804999999998,-0.738611,-11.525537,26.298052645552453,3495.6452235916818,2.4687582499999996,-0.0009438541704304053,-1.3510332874330766,0.7282450433565972,2.40965775,6.228754099738708,5.246817999999999,13.182774,-8.000225,44.2158543307967,3914.9430456498812,10.00750075,-0.001057499396870147,-0.04118670318481262,-1.1396118045370673,0.56455634,0.9670982859900294,0.798674,1.756297,-1.352205,1.2446501648514001,122.26469630976726,1.6504975000000002,-0.001003526140374779,-0.40572579228107813,-1.2605323490396714,0.5558183700000001,1.1955850789252687,0.717279,2.309355,-1.673529,1.7240635045687096,158.92982195953257,1.8488069999999999,-0.0006630793064548624,-0.6473055457844349,-0.8483182906153846,-0.9848321399999999,1.9116903371985916,0.8547820000000002,2.778688,-3.071538,4.5879086898620605,434.49048796498386,3.0109345000000003,-0.000836798696813865,0.7319558454382478,-1.0151439311104575,18.38278362,4.166236809999999,2.0913932984637373,shaking_lr
1.5904831099999999,10.581999970231895,6.6861075,17.902793,-19.037794,113.38857265948317,9071.232836730902,15.120056499999999,-0.0010170954996991915,-0.5048012850547766,-0.7896483334359643,-3.980206149999999,2.319702442487465,0.9381529999999998,-0.738611,-9.716568,21.169250223963314,2891.9305058952787,1.982586,-0.00046781433742830767,-1.1284625274090476,0.18870649358188007,1.3373127799999998,7.6280738389871106,6.267645999999999,13.182774,-12.663232,59.39404085966047,4785.766311273901,12.80202075,-0.0008450692958210348,-0.2832781360241549,-1.1662101790250676,-0.4653232499999999,1.2144933282743455,0.87926,1.755345,-2.534202,1.6767698309692298,147.971449053936,1.6432707500000001,-0.0009447146319560444,0.2645657126575657,-0.8481145205811225,-0.5502321299999999,1.1205626797965393,0.6319835,1.725737,-1.823897,1.5458595090436102,144.43626778512495,1.979786,-0.00014156232182186232,0.5676381536935511,-1.117078292407376,1.06666315,2.0528034088203655,1.0913545,3.372066,-2.690516,5.309632092479791,503.756020853582,3.8521245,-0.0004514769936850862,-0.633111551147731,-1.1717474194757127,19.85605708,4.41150081,1.049892128160671,shaking_lr
-3.45512776,7.718779066656948,4.1838675,10.392332,-19.037794,70.92166261498552,6475.811766676669,11.89701225,-0.0007253647826769973,-0.509354654860512,-0.7948282917232992,-4.5275729799999995,2.065564532490864,0.7818564999999997,-1.183783,-9.716568,24.722808358731445,3532.9861374729558,2.03492175,-0.00013562459657231877,-1.0495329110659422,0.25287752556419285,-2.7118493500000005,5.473086259004258,3.6918590000000004,15.101726,-12.663232,37.00925336361163,3473.3698307021805,6.987814000000001,-0.0012586130804584385,0.4967692093296444,0.5952360369426821,0.37033457,1.6787640850480623,1.389525,2.96374,-2.534202,2.9272140584518693,240.08698801873967,2.77969075,-0.0008788467380831038,-0.27893342053212933,-1.3093182961635281,0.45497775999999995,1.5191538917288505,0.785299,2.273196,-1.823897,2.49175502338198,211.18778055530444,3.1131987499999996,-0.0012511019743524378,-0.37948011822501665,-1.6123592876703632,-0.10409982000000002,2.438407862752448,1.2130065,3.372066,-2.850771,5.89721134860566,462.54470212209844,5.019839,-0.0010431916640596527,0.33748195843364776,-1.7128919866844696,15.76123753,5.3891050499999995,2.520831670804185,shaking_lr
3.39163362,6.685810083838365,3.9554455,16.781708,-12.349292,55.75623452469754,5261.583698586378,8.012682,-0.0010871616096111388,-0.09427681772648193,-0.1622656503087443,-3.51094555,0.9297736718579253,0.658256,-1.183783,-6.012589,13.18257294513617,1993.6095544295783,1.2722559999999996,-0.001119664153300213,-0.0584288021503343,0.05410053733063558,3.5498139799999997,7.160906651884375,4.5573635,18.521095,-8.205079,63.366977528835285,5936.387547082631,10.2068935,-0.00046942385778994623,0.6074434857983964,-0.6828436494206196,0.17233658999999993,1.8629580487756403,1.5023035,2.96374,-2.463501,3.4656064648357905,273.61461324164003,3.66045125,-0.0011755562649070977,-0.16280834839936145,-1.617094509977463,0.33749351,1.5914317906484636,1.0392435000000002,2.273196,-2.124996,2.6212304621358298,214.34446347244375,3.27501,-0.0012640518209069728,-0.30110350518287743,-1.6270849910973206,-0.3752475700000001,2.0485704895450474,1.4453349999999998,2.583246,-2.850771,4.295485378919389,347.67258338508753,3.90101875,-0.0013111143858371846,0.25646490920237647,-1.6739306037058472,15.293163649999997,5.2449151700000005,2.214734209258536,shaking_lr
-1.7068981499999998,10.223902583592261,7.969175,16.781708,-18.963274,106.39640349287001,8550.154356960426,15.764808,-0.0009735370180425132,0.03771342774283528,-1.0105175298590845,-4.49975686,1.9048441378323486,0.9982325000000001,-2.311901,-9.387515,23.83995867665698,3444.3817537616387,2.1022592499999995,-0.0001425058953157147,-1.1146388552980073,0.2379336006592787,-0.40318805999999996,9.611687519015746,6.0431145,18.521095,-14.813524,91.62325220529759,7189.384321026264,15.14399925,-0.0012260082491150983,0.48073387716439137,-0.8753918456342364,-0.6726012899999999,1.401440192675005,1.0719975,2.208112,-2.463501,2.3967867628181696,222.59592653877127,2.7933845,-0.0001439024527153722,0.4058434811671578,-1.2352708409194184,-0.48945421999999994,1.340832360396088,0.8686385,2.060631,-2.202904,2.0194185379743,176.55375107045356,2.232306,-0.0006445494125010653,0.5213462905497627,-1.077907315464612,0.8058777799999998,1.8405055978403893,1.1392900000000001,2.876821,-2.469225,4.003025243422719,363.5531001937921,3.4538782500000003,-0.0005345820977418074,-0.5990740815091955,-1.1798759410036561,21.322035770000003,4.52240049,0.9992736378614006,shaking_lr
-1.94783866,10.011571983206702,7.2895959999999995,14.575451,-18.963274,103.02333328457065,8351.354153082446,14.14629025,-0.000832468736319856,0.015072611555336351,-1.0604803302422494,-4.16564005,2.2388815231549426,1.4291889999999998,-0.611419,-9.387515,22.315021596141356,3099.070533500366,2.89081075,-0.00016954462633545763,-0.6841723504864078,-0.341944788775554,0.17697637000000008,10.551559700459395,5.684134,19.790022,-14.813524,110.25337862677354,8628.746825037413,11.825972,-0.0010526260131605914,0.6061995023514036,-0.8395420593406255,0.8717370500000001,1.6318745508064967,1.3744265,3.953491,-2.168943,3.3963098884169103,324.71434346795496,2.8452005,-0.00014267481704313174,-0.17033692606387255,-1.0699597929970637,0.5481417099999999,1.37322774223084,0.923629,2.377308,-2.202904,2.1673562219538103,192.83325139428828,2.5704717500000003,-0.00036423905815750115,-0.4852496885247484,-1.140507604248431,-0.56931045,1.9042198583766707,1.0258375000000002,2.876821,-2.736072,3.91390712482491,331.12533500445727,3.1691902499999998,-0.0003738074136418794,0.6504103341334083,-1.073829407333554,21.3789145,4.74298737,2.4247310327348077,shaking_lr
2.1618713300000003,7.893807665661542,3.71827,14.575451,-20.689494,66.36276511530835,5567.540631832178,7.4299930000000005,-0.0012654946859257117,-0.8314017090937614,0.9753422438164998,-2.7178079200000003,1.2919166860516902,0.654964,-0.352097,-6.866421,9.03883812647652,1284.326342758982,1.31486525,-0.0010920116461932286,-0.6542813342953848,0.33173416449409565,3.9539492200000006,8.869457723590816,5.1728974999999995,19.790022,-13.679122,93.51432194179768,8533.695901312933,11.694552999999999,-0.0007329649546764632,0.19369727561733258,-0.6154433853162162,-0.19321593000000004,2.1686835485108475,1.044808,3.953491,-2.471855,4.693488845851549,369.92541746244694,4.37368775,-0.0008613913187105078,0.4955238041305063,-1.427622152826129,-0.36622674999999993,1.6038559840620115,1.0472495,2.377308,-2.202584,2.6807525098509695,220.36020625627276,3.2150279999999998,-0.0011773064781837005,0.43897591426869764,-1.4386061043480536,0.6484709999999998,2.1906275246008455,1.6651115,4.220772,-2.736072,5.171375099864439,437.5886842187241,4.0702405,-0.0010067915396630089,-0.20712597247050918,-1.4067433733684709,16.178446609999998,5.651372860000001,0.6826267840625373,shaking_lr
-4.65066042,8.028975657858002,4.294973,8.333617,-21.46716,85.44844795548616,8367.924735983268,11.6070145,-0.0005750351071197274,-0.6634216279244614,-0.7319354367712547,-3.9084967699999997,1.951786064747487,1.0855459999999997,-0.352097,-8.343942,19.047721155217488,2681.592645872394,2.60163675,-7.967977339247031e-05,-0.6332250652055491,-0.22953054198870726,-3.0257606299999997,6.2041434338061805,3.595193,11.180174,-13.880384,47.26170917982593,4412.807759018832,6.97849975,-0.0009257401327764395,0.15437463217366873,-0.3239268282472847,-0.38934548999999996,1.6825179317206356,1.6907219999999998,2.364864,-2.471855,2.95414783523921,243.5250632776041,3.17823775,-0.0013781235368658913,0.07194813401989157,-1.669901107495858,-0.12719066999999998,1.7087522749613404,1.3605735,2.206807,-2.202584,2.9068134603487503,228.94956668431732,3.656166,-0.0012946450314912578,0.15772641142922872,-1.7117643644060134,0.38680439000000005,2.304145009191487,2.4482995,4.220772,-2.477739,5.405611017271492,434.76991880017687,4.290825999999999,-0.0011173677766628555,0.051201236417463616,-1.6560703721582928,16.06475644,5.399481010000001,1.268728221498862,shaking_lr
-0.23634810000000012,9.148303305582782,5.819257,11.543194,-21.46716,82.91039926160109,6508.001774400695,12.6542535,-0.0013625933793685976,-0.7863884892386047,-0.34562789293862073,-4.4975856599999995,1.77876009873196,1.1223564999999998,-0.541838,-8.343942,23.360624382990164,3405.531377837617,2.1073085000000007,-0.00038626352016325885,-0.11842853577944765,-0.21832282220874077,2.2328085600000005,9.184086464219718,6.6616415,18.284219,-13.880384,88.48940380605046,7322.5775608155545,13.3624505,-0.0012337808903881207,0.1705927804521684,-0.9961150121856637,0.6677323900000001,1.8361170402289195,0.8102884999999999,3.347788,-3.42903,3.7834790722199303,331.0078599561226,1.528148,-0.0010622162462242057,-1.043980942434161,0.19920019714006099,1.24313126,0.794038815773589,0.44857800000000014,2.221792,-0.730756,2.16956799413476,290.3203524246251,1.361571,-0.000835436040069591,-0.6849046265391088,-0.7342069159906237,-1.16544114,1.1825374306188308,0.6279625,1.012262,-2.477739,2.7426638778709402,320.4184314254695,1.85274625,-0.0004356552335601887,0.6390543226909852,-1.0938227337227955,19.4218642,4.45428919,2.708633346922426,shaking_lr
4.696832580000001,3.188293881867587,1.3312510000000002,11.543194,0.460734,32.12380198293219,4233.182998412604,4.45317775,-0.0001947572655909341,0.7925096363463527,-0.682542241095017,-5.45626893,2.361957027024486,1.1643305000000002,-0.541838,-9.953295,35.29392322401859,5085.038018515796,2.3898255000000006,-0.0009155923923796252,-0.030871832149476294,-0.6165602103889629,3.14865801,8.166914266156594,6.526145,18.284219,-7.436091,75.94555100838174,6710.916614890189,13.571606749999999,-0.0006909964849269957,0.44982190494355206,-1.1637385212483349,-0.85605508,2.1813886218554583,2.1759485,3.347788,-3.91757,5.44370205635866,482.92404070044967,3.7132985,-0.000841870063122175,0.35537673888948873,-0.9923999361008438,0.7102874100000001,0.7490940900000155,0.47908150000000005,2.294251,-0.675454,1.06003874092073,122.50349113821036,1.2012025,-0.0010427610221677675,0.36753497461814616,-0.900678273982106,-0.12920729,0.9976965833220998,0.5317810000000001,1.061911,-2.41683,1.0021390114380098,79.75797877724442,0.9588779999999999,-0.0010474378818640287,-1.0463631186588525,0.08362704058770598,17.19423166,3.5441573400000004,2.804111730132164,shaking_lr
2.68692717,1.5407628762256942,0.7472900000000005,7.961918,0.167594,9.56978835523193,1311.953048918805,1.7520325,-0.00032407001288489414,1.2007332437283027,1.1693778033067908,-6.462901939999999,1.7478999643002007,1.2123635000000008,-3.407996,-10.683975,44.7937042284044,6762.8735264382885,2.8000195000000003,-1.2855244392349341e-05,-0.49028653025161256,-1.003448590465839,-4.580830510000001,4.938493231780731,3.334749,8.097489,-13.425635,45.128836407687515,5174.411788919054,6.4987242499999995,-0.0013698600196664292,0.5207136853409853,-0.4019453806197619,1.0188330099999998,1.4348892542528404,1.0662055,3.061453,-1.81257,3.0763388025162293,321.82477450108297,2.3419082499999995,-0.0008636616341211314,-0.5171189597572142,-0.8642243510808565,-0.4147258199999999,1.105799978509835,0.6349324999999999,1.459405,-3.553147,1.3825631623223,121.47503667184705,1.342491,-0.00021790896395269203,-0.9783373528326887,0.6692542503938839,-0.6184161899999999,0.6563823718424413,0.2961465,1.193476,-1.996107,0.80896802393897,93.23411120329803,0.5911700000000001,-0.0009601670021953386,0.44642662634042257,0.7122750448012751,15.00504526,3.1566332999999998,0.6735427575340726,shaking_lr
2.99746264,2.410503950402456,0.8048255,9.86875,0.167594,14.73720628015256,1853.705182723425,2.15732575,-0.0005315823396703972,1.5005437260585632,1.2931794806647217,-6.175041149999999,1.6264134356458757,0.7674170000000009,-3.407996,-9.351003,40.74990166120625,6162.660766746277,2.5697270000000003,-3.678440582532343e-05,-0.7109265803142915,-0.8433591103819755,2.6765977299999997,8.31213220055364,5.05184,18.377293,-11.316344,75.56480171052702,6467.408536798471,10.612710499999999,-0.0007912200504748219,0.2799994400109669,-0.7768837371975073,0.5644802000000001,1.7695420773883106,1.7174844999999999,3.061453,-1.881944,3.4186042682032998,292.1130808097255,3.5214705,-0.000707364924074055,-0.0632101498510056,-1.7044317297291802,-0.7794500000000002,1.2975419200709604,1.0237824999999998,1.002235,-3.098908,2.2743211864980197,225.28332738398657,2.630983,-0.000500560558075369,-0.32749197340950603,-1.333292958942945,-0.08548831,0.6648843764135097,0.519661,1.193476,-1.705631,0.44495877280545004,35.363711660393776,0.97255175,-0.0006424999876558686,-0.3114513994880628,-0.42561175573559984,15.93802688,3.44744023,0.4913003515180646,shaking_lr
-0.60934824,5.497962386776267,3.6371665,9.86875,-9.97604,30.29661977993362,2396.5368300105542,7.253907,-0.000541284279224767,-0.052471859647111,-0.8260627403185308,-6.508997879999999,1.6940325798210665,1.1685945000000006,-3.161394,-9.351003,45.20810231952476,6843.073971394131,2.808173749999999,-0.0008109251551536692,-0.08551170749484727,-1.048309330981322,-1.25736439,11.286900128050792,8.4189855,18.377293,-18.223316,127.70113856482716,10109.500549124976,17.468993,-0.0008544005968024075,0.17401996965801309,-1.0378938568549232,-0.5083655700000002,1.408992594432168,0.5719190000000001,2.460747,-2.202729,2.22384308261447,193.92830121185443,1.7472375,-2.2220033239772596e-05,0.9872958527845438,-0.3995888464717656,-0.8880019400000001,1.5505237393360483,1.4993345,1.746698,-3.098908,3.16863007302596,309.21382585888495,3.0963165,-0.0005156924872972534,0.19211550377594308,-1.457177535233825,0.07827708000000003,1.0012375329127277,0.625319,1.585068,-2.130879,0.9985791325933601,78.50039647871793,1.2496287499999998,-0.0002821413244237761,-0.7934096708325887,-0.39022109602507005,20.419721029999998,3.724494349999999,0.5012485744505774,shaking_lr
1.00369725,7.291374757767129,5.6286185,14.618546,-9.97604,53.63991256927918,4270.486638719027,11.314734999999999,-0.0006540789931364643,0.2156392721129339,-1.0423307430865043,-4.79606626,1.8198873300779075,1.4131025,-1.68866,-8.676437,26.2811215655467,3850.369395826708,2.58124875,-9.358103143303868e-05,-0.42002050760231036,-0.5479317544062763,-1.1251176799999998,11.252115806101784,8.478093,19.607314,-18.223316,126.60989880663496,10001.162781021874,17.31254725,-0.0010875266198615457,0.10913729420206816,-1.0862846738110445,0.53115904,1.5981858098417892,1.3981994999999998,2.460747,-2.202729,2.8107858297255803,241.65832626941133,3.301069,-0.00035245160484252073,-0.28356856289129434,-1.5016493979630703,0.3969236,1.556693295938561,1.0256745,2.312211,-2.903779,2.5566094216808204,212.0478221729929,2.47462075,-7.898770662696053e-05,-0.5589906416391802,-1.0305144482687145,-0.37071372999999996,1.3134477762632693,1.1754305,1.717891,-2.295248,1.8453222799717302,154.9193085718431,2.50972475,-0.00041499223975581664,0.145758571758365,-1.4623629374504372,20.458126949999997,4.19467053,1.8231085994773821,shaking_lr
2.8013117300000006,6.35886674173285,3.3422305,14.618546,-13.86976,47.878181785360596,4362.784455654713,6.628496999999999,-0.0011133625183455571,-0.2958364723449036,0.10792251409881404,-4.14787212,1.1796850456536074,0.5960064999999999,-1.68866,-8.449587,18.58258336274266,2797.6770806855216,1.603367,-0.001147943622743182,-0.405691955341577,1.3761395017140456,2.5750147200000004,9.287358457295147,5.203348500000001,19.607314,-19.034053,92.02317765136546,7721.930477101452,11.876474,-0.0009574350727815867,-0.38814509309032014,-0.12789222777947673,-0.3707184600000001,1.7996652455601962,0.673144,2.368126,-2.225225,3.3438392227012397,272.39420261057717,3.829694,-0.0010231364181155212,0.4536706922370418,-1.5772190712635348,-0.34089817000000006,1.7663348210301282,1.4821075,2.312211,-2.609825,3.2049508752930502,259.7149566263324,3.79255875,-0.0009355746510224847,0.28672406556885094,-1.565651559860276,0.43408500000000005,1.4749259701378474,0.44397699999999984,2.215338,-2.295248,2.3420823384382,198.1605797871639,2.79212475,-0.0011282637659395353,-0.5801415926758675,-1.3151901043437921,17.064359590000002,4.86064167,1.1603617999958504,shaking_lr
-2.0486076300000002,6.039088532652474,3.6348469999999997,8.073547,-14.995633,40.302677623856674,3477.189021469378,9.515754,-0.00043604816778675256,-0.6784338611274029,-0.7214732734822209,-4.239782519999999,1.9759711965385296,1.012897,-0.187346,-9.043498,21.841173364751963,3111.9409507319306,2.2554127499999996,-0.0008621824978826639,-0.5082952942358281,0.18167798561663817,-3.9828727,7.971649711272693,4.1393505,10.511892,-20.342933,78.77500207244698,7393.654030541094,9.8731635,-3.633221748839388e-05,-0.5338009171265702,-0.5791934150016638,0.0031557300000000497,1.946488148916655,1.7999399999999999,3.198474,-2.225225,3.7509379113660897,293.96257733101646,3.853992,-0.00131202831720071,0.11557528298532874,-1.7558207490796953,-0.21878972999999996,1.6911137476883156,1.795463,1.929555,-2.609825,2.879135996497689,229.19307773501217,3.5667722499999996,-0.0011443052480249315,-0.05769477058672924,-1.6901531789249153,-0.17637104,1.873892655965407,1.3292264999999999,2.215338,-2.729276,3.5074656929709596,277.16051111887566,3.75757675,-0.0012150091437508486,-0.1703508787250862,-1.7737592257136323,15.530527730000001,5.214152960000002,0.35763169784942017,shaking_lr
2.95170499,8.99077600394811,5.042413,19.54731,-14.995633,88.73827496962829,7622.148569580524,9.932345250000001,-0.0009239701175150911,-0.056507556503750125,-0.4984555509061819,-3.0573955,2.0533272912285003,0.7739259999999999,0.073023,-9.043498,13.521658678674976,1788.2543366271098,1.6596682500000002,-0.0008969950009031645,-1.5201283199545723,1.8004283860596058,1.4648533799999999,9.482673137285351,6.0300215,15.256302,-20.342933,91.16767435520467,7304.156627319776,12.7476645,-0.0010959578016255264,-0.4671879636906931,-0.303181319729966,0.4717523399999999,1.6448871454064862,1.379241,3.198474,-2.116731,2.90114745420774,244.09885685040967,3.23523825,-0.0005173256873776653,-0.18672685648277307,-1.4498269998595557,0.028106520000000055,1.7010554632998631,1.069848,1.929555,-2.746713,2.8654437687965997,224.1726778789779,3.5202177499999996,-0.0009374752906388161,-0.4527964578891522,-1.4280899551172466,-0.2795773599999999,2.0438625419949825,1.5372320000000002,2.854735,-2.729276,4.213763849889061,335.4398249849367,3.899711,-0.0006971996440547698,0.30516113884649554,-1.5409412786714731,17.82938179,4.99152284,1.1988624047861351,shaking_lr
-0.8653138199999998,11.379239294973447,9.493009500000001,19.54731,-17.842938,128.94098407002812,10138.748704972908,18.39981425,-0.0008265580539535394,0.20993162838508866,-1.0650138894311154,-3.7825752100000005,2.1660065007745146,1.0314519999999998,0.073023,-8.618527,18.95254353909003,2598.82107593975,2.856058,-0.0005086754089965687,-0.8157134085093302,-0.3842963122138543,-0.38494422,9.989038546264908,7.6030865,15.256302,-18.016517,98.93126422048992,7748.482494526198,17.2210815,-0.0009731433793141891,0.0761710698419145,-1.092152838166345,-0.3406966799999999,1.3797156305090288,1.023269,1.972175,-2.116731,2.0006532966232395,165.37532075167823,2.9972125,-0.00020644112411176134,0.30728668532770514,-1.4967658600315539,-0.5622200100000001,1.6378283596974568,1.377207,2.263149,-2.746713,2.9717482581153694,256.9223038633001,3.0814062499999997,-0.0004913618748981175,0.302064571044269,-1.3051838751662628,0.6291793299999999,2.1591492902860585,1.302099,3.509865,-3.532107,5.01117303046461,422.5419756289863,3.96037225,-0.0005674024070779271,-0.48423534520740336,-1.2148352322846159,21.74980767,4.881625359999999,0.9094551034244799,shaking_lr
0.1348638999999998,12.315431964508926,9.4983215,23.854928,-17.842938,150.17135409924694,11736.62717439615,18.400973999999998,-0.0006880662461915173,0.2576886137951871,-0.9718205770400941,-2.9096508200000004,2.8485286017733005,1.8435354999999998,1.140837,-8.618527,16.49904193749602,1950.6891495266734,4.6371192500000005,-0.000498388961595816,-0.5510668974942617,-0.9238575011397252,-0.8332031299999998,9.231378088949686,7.4321255,14.457387,-18.016517,85.06038546277075,6702.085446924321,14.858453,-0.0008099026852244559,-0.09081507842034302,-1.024282546573853,0.39224553000000006,1.3569417143747005,0.8406264999999999,2.125462,-2.104497,1.9767344638530302,166.45253984354815,2.6367754999999997,-1.6989893531811477e-06,-0.44924748253532526,-1.3789869790024203,0.29099192,1.51544541844799,1.3318025,2.265925,-2.348807,2.35828536563734,190.85839058911745,2.6992062500000005,-8.167165677411521e-05,-0.3071324487187194,-1.34866169904388,-0.5256837299999999,2.4226308219736543,1.8970369999999999,3.509865,-3.615909,6.08679208256769,497.12590336072935,4.846806,-0.00014823850901084698,0.2810874249387932,-1.5349941926154573,21.29793803,4.990483659999999,1.7351984350085357,shaking_lr
1.9391222599999995,11.402897468318013,7.1210295,23.854928,-16.821811,132.48600510547118,10653.518733605759,14.04824025,-0.0007677594878450934,0.03894337259395901,-0.692580010587784,-2.52431905,2.4805135132214198,1.5116390000000002,1.140837,-7.827543,12.463604482574228,1472.4225115620734,2.9942105,-0.0008054685992236842,-0.6685402072789715,-0.5129310446374884,0.3357733200000002,8.644179571648971,6.2983215,14.457387,-14.848539,74.08736578466805,5803.3310625306,13.2672065,-0.0008039656655555061,-0.26283973837818614,-0.9348869962781015,-0.25542412,1.3527614145150553,1.002132,2.125462,-2.239829,1.87690529123254,151.7518449216396,2.31753375,-0.0003941209546077497,0.33335023670673397,-1.304369536537147,-0.38524613,1.508045076272279,1.2241315,2.265925,-2.422912,2.3998725332283497,199.1047747740063,2.6981405,-0.00037540705131304346,0.3061555056558137,-1.375675431108002,0.6070094,2.437208926919939,1.4461249999999999,3.308811,-3.615909,6.24904789161202,517.2815771944378,4.82543375,-0.000734737587675568,-0.504150450638489,-1.3621334920829278,18.957011890000004,4.971829329999999,1.2881899902539697,shaking_lr
-2.0482664699999997,10.232612991547743,7.5628340000000005,19.814712,-16.821811,107.85470048057,8762.80395678296,15.174563,-0.0009448685453204542,0.38474505432330813,-0.6583301009807987,-3.55816968,1.998597746122581,0.9965119999999998,0.148141,-7.827543,16.6150204929695,2287.643705893831,2.2181532500000003,-0.0007020995328565113,-0.4895855254858551,-0.3422390471192407,-2.4472317400000003,7.579403861345861,4.8077060000000005,12.505514,-14.848539,62.86183245371417,5383.11180670389,11.178378,-0.0008122756599962633,0.07214314313541954,-0.8461200574423069,0.25907886,1.5390489874503215,1.3813659999999999,2.57583,-2.239829,2.41210692361304,193.80561268493224,2.857195,-0.0006244155255866136,-0.1397992982243574,-1.4562715050029842,0.20530399,1.649820776310716,1.428449,2.704088,-2.422912,2.7368392363169507,217.34173878341593,3.1378079999999997,-0.000597279618397483,-0.1925540888488828,-1.4826026525961657,-0.006993280000000049,2.4553341255000047,2.3010805000000003,3.308811,-3.746396,5.968427917131581,466.55844494889374,4.67554475,-0.0005747795205125672,0.07916509327901596,-1.5552703317749568,18.52781235,5.16350863,2.477077960024872,shaking_lr
3.07372847,8.992318201268683,6.6556560000000005,19.814712,-14.36102,89.50097547382795,7732.276301386739,13.056891499999999,-0.000589751306025816,0.08162074823225031,-0.8635265033580701,-3.131853649999999,1.397792496918055,0.6887069999999997,0.148141,-6.310966,11.742792910814329,1683.8399283501344,1.3763665,-0.00030882909311138947,0.20047506651932984,-0.02220635621244238,1.41661918,6.676342672564677,5.5499095,12.753613,-11.298238,46.13462586783686,3762.860371690269,11.215638000000002,-0.0006814478486980078,0.18002564262262585,-1.0430946989570433,0.10229899000000005,1.5947991185554946,1.603008,2.57583,-2.035103,2.52841546961495,198.6916265477905,3.2066654999999997,-0.0013990078326897653,0.07493956821960245,-1.6066982351744497,-0.0019039500000000075,1.7130216337778688,1.5877430000000001,2.704088,-2.05441,2.9051023116386894,227.39383599146808,3.4596220000000004,-0.0015612664318117777,0.12844622254919086,-1.7373902479877918,-0.028850339999999985,2.285604643085528,2.0755334999999997,2.797242,-3.746396,5.1725810407673,404.85226739990037,4.20076325,-0.00136769370229229,-0.16711146189316195,-1.5795411329211162,16.509852,5.22743426,0.9639962285149097,shaking_lr
-2.8796439899999995,9.152234103841952,6.5077395,17.860744,-16.694768,91.21810470975554,7789.018048004152,12.7427645,-0.0011042502365115707,0.36245227597785046,-0.6336545234949482,-4.3400696299999995,1.4246761405742387,0.9985320000000002,-1.706617,-7.247697,20.845609477714632,3100.6280581178303,1.936273,-0.0005950500200079784,-0.5068131202369547,-0.6537029821662701,-2.8779650799999996,7.416212861627043,4.250381000000001,12.753613,-14.661343,62.732894078572144,5554.096191122395,8.44161775,-0.0009350416377467824,0.41517519682208925,-0.4541777026709002,-0.20167964000000005,1.4621289237794506,1.0971164999999998,2.135538,-2.035103,2.1571174570454605,171.82383936204022,3.0240035,-0.0008186564406169271,0.35751095315059833,-1.4868125363423157,-0.42192089000000005,1.4525931803515242,0.800808,2.020118,-2.05441,2.2669439155461104,191.25328108230443,2.6571185,-0.0009774221177692914,0.4980481305151631,-1.401489721898876,0.41538326999999997,2.2060613930507986,1.1814190000000002,2.797242,-3.315636,4.9905830622060305,404.1850326603166,4.5081635,-0.0011688419291279576,-0.5997088374245512,-1.3024162232495038,18.72366402,4.86396686,1.2378560065166329,shaking_lr
0.65595888,11.548786451104105,10.056096,20.226515,-16.694768,132.4710058605246,10392.446828818987,20.019977249999997,-0.000954324991666595,0.037801494330835905,-1.2529406088920418,-3.3036496399999993,2.1145446465053785,1.6001495000000001,-0.261417,-7.247697,15.34068701531604,2051.531906531963,3.2234185,-0.0006001416470923079,-0.4349730555972178,-1.0257600599014884,0.04954202000000018,8.741364366031437,7.335160500000001,13.457059,-14.661343,75.64979088167263,5914.4655913447605,14.198775000000001,-0.0008674389341781678,-0.16853656275573933,-1.1531944483351697,0.5972149900000001,1.204886610097813,0.914372,2.135538,-1.560251,1.79389997004177,168.01852958090373,2.1087057500000004,-0.00020624201903575868,-0.45159877107515567,-1.2753231764709232,0.4648915299999999,1.380437459167666,0.989618,2.44144,-2.113725,2.1026756375522897,181.18827487970955,2.1972009999999997,-0.00039171538500764295,-0.49244750331601456,-1.166445738571096,-0.8444835,2.103147489834212,1.8769399999999998,2.525124,-3.346043,5.09214945212824,453.54231394586867,4.29386425,-0.00011151144031567426,0.2298156402451696,-1.5771056487447839,20.79881286,4.550567480000001,1.8864765429087227,shaking_lr
1.5420259799999996,11.753358953729945,7.280169,20.226515,-19.579332,139.13787635126658,11072.82838826556,16.3084785,-0.0010863525201496125,-0.3824146299335064,-0.8295725846888624,-3.5602526300000004,2.9829444271882073,1.151237,-0.261417,-10.690709,21.484376670558174,2671.677735830404,2.10873125,-0.0010642908715975733,-1.2760711377268918,0.41959254965322224,0.90966795,7.877137796309908,5.5860465,13.457059,-13.604303,62.25630264269077,4933.260421933865,10.81857375,-0.0008884557859859265,-0.15075510611895615,-0.9681464481616837,-0.22071054000000004,1.1043354908982703,0.6972004999999999,1.958254,-1.560251,1.2560744501600398,101.94074173606155,1.8324695,-0.0002018558274325541,0.5234888535411506,-1.1665671115715726,-0.47379711,1.4375859915775608,1.0374349999999999,2.44144,-2.182781,2.27047064979259,194.95400984048607,2.572579,-0.0003785778700749903,0.5017102753841024,-1.178943346149993,0.7942500800000001,2.2845619192233126,1.3974440000000004,3.618461,-3.346043,5.7978641207176596,502.3190233751572,3.7337545,-0.00044523015467056413,-0.600475993152426,-1.0484167485226235,19.90360442,4.560396229999999,0.9931524622684293,shaking_lr
-2.7479225099999995,10.389124317556877,6.7364605,20.54659,-19.579332,114.4056431657598,9543.48741812859,14.945579250000002,-0.0011359178400242211,0.10581891893421654,-0.661416751832482,-3.5580978799999996,3.517184843711008,2.7455515,1.500117,-10.690709,24.90694385624262,2935.8461233756607,5.43884075,-0.000681599337555943,-0.5237859821414385,-0.6873460236580531,-1.8984193700000003,6.303163028258462,3.3157445,13.374609,-13.604303,42.93656162358753,3642.423457248907,7.051635,-0.001043600287045808,0.2912198493058004,0.04782694896389783,0.27231848000000003,1.1194683575921793,0.6795990000000001,1.716873,-1.549773,1.31483466416314,108.75845530044144,2.189114,-0.001324907610293142,-0.37331953956644026,-1.562303049685374,0.17392755999999998,1.502385341924569,1.191074,1.986274,-2.182781,2.26484089460106,179.4300140612451,3.232645,-0.0008215975735804619,-0.2845324253284534,-1.5746449857666915,-0.5025202799999999,2.8301344816720806,2.145577,3.618461,-4.12055,8.182091204317082,659.6921298339977,5.6763555,-0.0010305568094963013,0.23521420903609389,-1.6372724263022815,17.331298059999998,5.20114446,1.7129863819128024,shaking_lr
4.479849060000001,9.05769451620137,5.0445825,22.265926,-15.053393,101.29045924971896,9486.689052370943,10.39596,-0.0007838777662385887,0.10680329459991779,-0.40531669744623144,-1.5345231600000002,2.3964526459195064,1.7702875,2.498948,-8.341698,8.04031675986964,814.4318402711584,3.5048865,-0.0014042956577344822,-0.5018191427726874,-0.08712844236902795,2.7920012700000005,5.211273027244069,1.9266585,13.660267,-7.256526,34.68106399051835,3321.053437033862,5.78143625,-0.000791540341028627,0.6633118016183993,-0.25737725667403977,0.19445136000000007,1.082049256445105,1.0123665000000002,1.716873,-1.777516,1.19693361884552,97.00600535882745,1.9396725,-0.0014881761550700502,-0.09344879784638042,-1.6480408565095428,-0.00682250999999998,1.5616907945382608,1.451848,1.986274,-2.146665,2.41453590301079,188.84152326309837,3.0941225,-0.000960861558845023,-0.013063465014900886,-1.7389174648201229,-0.1355167399999998,3.0635131417205996,2.7736704999999997,4.422107,-4.12055,9.3096264286201,731.1592266160305,5.9020340000000004,-0.0013701072060970172,0.08322297757975897,-1.7382824156945982,14.22486177,5.437456569999999,1.1744339090986176,shaking_lr
-2.75818765,11.796050753975601,8.6846675,22.265926,-19.32001,145.3629443690773,11977.887314815947,17.452644999999997,-0.001164530107125554,0.3794425571441695,-0.7223852152805734,-3.36614577,2.739533489997985,1.2167779999999997,2.498948,-8.309077,18.760930650281228,2352.103341503837,2.6608185000000004,-0.0008546368117000588,0.10112569998925007,-0.28735813549488043,-1.23746406,6.754059735142662,3.4953845,13.660267,-13.057377,46.6924669766083,3777.976897570866,8.71455725,-0.0012659928297321303,0.3203058385049039,-0.20794168483610287,-0.26506975000000005,1.0460342976645522,0.703137,1.408917,-1.977743,1.1535078467367301,95.63096515704684,1.80611425,-0.0004193703619549948,0.1900848755015422,-1.3077509170041135,-0.43396826,1.3953386324202075,0.8495794999999999,2.055026,-2.146665,2.11582865082048,180.4082929321213,2.385501,-0.0012080782319544322,0.6454101165704842,-1.0254686436722866,1.08548965,2.5551514382117677,1.5413795000000001,4.422107,-3.162191,7.641798663730831,689.2618001539762,4.229353,-0.0005579038609225103,-0.4656180278252565,-1.313132018125848,19.00565306,4.86328224,1.4136681920611762,shaking_lr
-1.0692355,13.093035478909176,11.4709195,22.089503,-19.32001,170.85656682591485,13445.740550411858,22.4126825,-0.0007979411274438586,0.1992479966642277,-1.2277313433251351,-3.5983952999999995,2.3439663734567424,1.193734,0.194679,-8.309077,18.38768531135908,2448.2719732127366,2.5237505000000002,-0.0003208118927502395,-0.48385242749699053,-0.5406993247762824,-0.12644378999999986,7.292825612621773,6.2133275,11.566687,-13.057377,52.669440393980594,4117.191065076971,12.15592325,-0.0004924248301650039,-0.11531574443716326,-1.163396368479134,0.4450792800000001,1.06240872320832,0.7314050000000001,1.833737,-1.977743,1.3155207376829596,118.42085327123331,1.4982989999999998,-0.0009444063990298219,-0.7613432778107199,-0.306707447399333,0.42671758,1.327960977670496,1.194573,2.169603,-2.119014,1.92793344771448,164.9373742799209,2.651128,-0.0008103271076718377,-0.22864997539771076,-1.3937275849108022,-0.7802177400000001,2.3584789210185457,1.6396255000000002,4.379889,-3.695427,6.115538314490619,525.6447411342346,4.41781775,-0.0007490970954070978,0.543339159876875,-1.0637622337532653,21.188965949999996,4.476903160000001,2.108412756066796,shaking_lr
2.0287686800000007,11.865206776480301,6.0385505,22.089503,-19.578883,143.49120288709662,11543.570960603352,11.012130500000001,-0.0008983461975252399,-0.3259496826068128,-0.666722727218287,-2.5032395800000002,1.4142647163229678,0.6109705000000001,0.194679,-5.935675,8.2463516358363,1134.3340555004374,1.75502475,-0.0008704705932130558,-0.10962468403502475,-0.07437468538077185,0.1664807799999999,8.375328532892791,4.5623755,11.566687,-18.113931,69.47238260365862,5434.512679814821,9.6430585,-0.0008621660385188614,-0.8073610815500244,-0.36555029843240083,-0.17216605000000001,1.394017675249923,1.3559735,1.833737,-2.988861,1.9534935748927102,154.93252482871705,2.58590125,-1.4944227620844566e-05,-0.20167606217414003,-1.0002866233180119,-0.46717738000000003,1.3965885298791538,0.9725125,2.169603,-2.183844,2.1492096309557795,184.97231346291144,2.6849375,-0.0002862760977223635,0.5386269674064006,-1.0952775086224247,0.6768356,2.5719201236929083,1.790475,4.747825,-3.695427,7.00673182085734,583.46206665545,4.544473999999999,-0.0006674419793222153,-0.3178927945157635,-1.2316842366466774,18.797607399999997,4.8813289300000005,1.219513506993378,shaking_lr
-4.33319971,9.427493126163073,7.6645875,13.79539,-19.578883,106.76547010415754,9811.61955006291,16.816610750000002,-0.0006654093818694902,-0.07943172897476779,-1.2168967142028104,-3.6425279399999995,1.3260612657034234,0.6875099999999998,-0.905308,-6.216395,15.00886388927562,2209.2015436206666,1.422866500000001,-0.0003887836764079642,-0.0383777897854804,-0.28065166055806445,-2.563850299999999,7.114604817466254,4.7964839999999995,7.954436,-18.113931,56.684754052436986,4943.537136885608,9.673846750000001,-0.0005432626326871957,-0.7005580045557316,-0.4867166227774127,0.06823155,1.434014457537536,0.7731889999999999,1.824231,-2.988861,2.0404890341978104,159.7969916662483,2.55355725,-0.0002942812119727387,-0.6665285861932196,-0.979177694176562,0.6409626,1.9826985158274124,1.694091,3.136838,-2.183844,4.30261552521634,368.890058013101,3.890936,-0.0011167855169274949,-0.15815351883190593,-1.6726641882302422,0.11109100999999999,2.5532491642517012,1.7235995000000002,4.747825,-2.844284,6.466231694307311,506.70132388496273,4.8853465,-0.0009501127573711984,0.40020444180672254,-1.4276868007138992,17.77499305,5.523944140000001,2.370569394809701,shaking_lr
2.7267487999999998,10.067636580610266,7.9636385,18.806454,-15.358953,107.778892274351,9003.11586633354,15.514090249999999,-0.0005952122948262722,-0.09089746209127354,-1.0551540042666705,-3.4726698,1.228727836586658,0.6631940000000001,-1.070807,-6.216395,13.554109915270937,2001.4747977000004,1.5626280000000001,-0.0005009664670092292,-0.25161810681883456,-0.06940699553814333,2.27908547,5.020914714133626,3.5413979999999996,11.446379,-9.286659,30.15171930050265,2762.2104452484227,6.78015425,-0.0005613678975746607,-0.209728922696012,-0.6064656480191402,0.12528168999999997,1.0585693030256909,1.023259,1.824231,-2.048133,1.1250587814644701,89.75386794210519,2.0313135,-0.0016118298055685357,-0.06723522998029707,-1.3742642751140035,0.39651940999999996,2.2598503255064974,1.798737,3.136838,-2.910625,5.213081901261649,420.0059158418456,4.575078749999999,-0.0010111464859072765,-0.23132046747118287,-1.6216298525735495,-0.19588727000000003,2.19707022052392,1.6187729999999998,3.349788,-2.844284,4.81721820092195,380.234729765818,4.3135335,-0.0013124806277262377,0.3531505989937462,-1.4654461000383086,16.74350961,5.123356789999999,2.2767788021885713,shaking_lr
-0.7164678600000001,10.908653284742899,9.132009,18.806454,-13.153744,118.32205551627767,9295.399413474199,19.90580475,-0.000990831342916926,0.48279026151836785,-1.1459679435170675,-4.60956993,2.429672906584425,1.5518920000000003,-1.070807,-9.664794,27.092412268220706,3776.6848477524013,3.7872155000000003,-5.521582329234588e-05,-0.5481399411118386,-0.8266868035389363,-1.78130849,7.503413792509663,5.964181,11.446379,-15.921142,58.9112662927541,4852.992986286157,11.430442249999999,-0.0007000224169956497,-0.07343709693770573,-0.9023728231525721,-0.06408694999999998,1.122696422383241,0.8091320000000001,1.674432,-2.048133,1.25194992142411,98.17357135367101,1.9967975,-0.0005631436711020915,0.16246134523444836,-1.334521219338385,-0.50838739,1.7140025381858082,1.656717,2.25101,-2.910625,3.1668843922093304,267.6261646525198,3.4901264999999997,-0.00034383377661338264,0.1475053149265899,-1.4531248524994869,0.5154716899999999,1.9494028666913876,1.7644859999999998,3.349788,-2.506688,4.027880884489409,335.5478482230647,3.19602075,-0.0006646056978009873,-0.17368889270348004,-1.265954462151128,20.28626222,4.34783397,1.1534390937190169,shaking_lr
0.7137474300000004,11.357241019001208,11.616890999999999,18.703952,-13.153744,128.2064897218784,10069.927566029966,22.7105365,-0.0011273792839726587,0.1840327634424178,-1.457438528759402,-4.43705868,2.5189342187839854,1.49503,-1.173458,-9.664794,25.969069032338624,3567.0087181489675,4.026785500000001,-0.00028346272918527884,-0.6308312619687211,-0.9140993346886099,-1.07602006,7.748255142625127,4.993631000000001,13.315951,-15.921142,60.59292234718701,4828.6631743166545,12.04455475,-0.000837175751507233,-0.24890734919578206,-0.9466902651607003,0.46585528000000004,1.0472919487893584,0.6736489999999999,1.674432,-1.976843,1.3028733636428997,118.88320338510636,1.84517225,-0.0009143475172780288,-0.7004287058807384,-0.8406136472139356,0.4656930399999999,1.3219036385422311,0.7951674999999999,2.25101,-2.038418,1.9468249447997197,169.07074746736822,2.54517925,-0.00042270023678849173,-0.43742588265125537,-1.371057373355818,-0.8318607,1.7470060091959316,1.3206865,2.937819,-3.195753,3.7135019204095205,344.2502035113244,2.896097,-0.0005356000705784315,0.38842831546214923,-1.1560498656602618,20.957505109999996,4.03784758,1.7426886217059658,shaking_lr
3.3696308599999996,9.910432565158908,7.628525000000001,18.703952,-15.798738,108.58891902494094,9382.877015812332,14.82238975,-0.0010287600988298845,-0.24926532609915591,-0.8070607130644865,-3.8249406000000006,1.8956220128069476,1.2755109999999998,-1.173458,-8.703222,18.187619580812243,2565.2725638248653,2.88924025,-0.0008238886603602104,-0.8078876385531435,-0.12562708926149657,-0.050309619999999985,7.052194506801652,3.958588,13.315951,-15.106515,49.2386439460103,3857.9154399659947,9.181464,-0.0012819264877213926,-0.44316035357937567,-0.4157411683431178,-0.22596340000000004,0.9397320025907233,0.506708,1.604121,-1.279432,0.9253247324657999,76.28174862708047,1.7024370000000002,-0.00015621062931726223,0.6511361699666015,-1.1218848676826536,-0.56179414,1.3730530521231608,0.9982954999999999,1.850193,-2.310775,2.18203459284362,195.19477254987794,2.58579375,-0.0006201409096306328,0.4064772714024503,-1.2499258960527495,0.52338787,2.0633706183937774,1.1266595000000001,2.776341,-3.195753,4.4888581882253495,372.27360012033563,3.6415184999999997,-0.000748809035180479,-0.6056510736573739,-1.1870629822130192,18.18404536,4.19121419,1.2306894359213865,shaking_lr
-2.47261326,7.428948237237294,6.317699999999999,12.006622,-15.798738,60.75119552596338,5226.038099823219,12.862661750000001,-0.0007341804906176008,-0.2387852553987567,-1.0640468816649788,-4.919400530000001,1.8154870057173853,1.3349920000000006,-2.263418,-8.703222,27.463534711813672,4036.3512714973403,2.7032034999999994,-0.00017147727648378006,-0.5402152733112773,-0.789169435274383,-3.2677276000000006,5.557382505479882,3.9373394999999998,5.038597,-15.106515,41.25369897689348,4057.585045105391,8.765621,-0.00036782539351355937,-0.494600865095208,-0.7753297231367084,0.28992693999999997,1.084392251532085,0.6980240000000001,1.612575,-1.279432,1.2482051201687598,104.23480953666326,2.145396,-0.0010345976666884947,-0.2232364891223221,-1.7423186912049116,0.12818001000000004,1.6726372644134937,1.1892455000000002,2.249431,-2.310775,2.78616837908521,219.6417534895029,3.4152352500000003,-0.0013123708913456316,-0.2564833065035687,-1.6367391235706223,-0.12143431000000003,2.2515645146660326,1.9738110000000002,2.776341,-2.716138,5.033593627711429,395.25951737535337,4.627613,-0.0012664872203250075,0.10455017737504428,-1.8251175397300756,16.350782690000003,4.79757388,2.0234924016029665,shaking_lr
4.24305056,9.101769351616133,4.9013055,21.270686,-14.93069,100.0172613314349,9231.12049741297,9.62596275,-0.0010432377209267814,0.001986686774285153,-0.4342247664028762,-3.5718330899999997,1.788257830552035,0.7731774999999999,-1.624615,-8.603414,15.923879030664306,2241.9366980411723,1.6479962500000003,-0.0010022898486438132,-1.4046612220733226,1.11714877683636,1.8708546200000002,5.598969763814295,3.220725,11.22701,-11.634024,34.535074801120984,2976.8923180130473,6.0097085,-0.0011614049515543774,-0.22305236892463068,-0.24944176836151444,0.27486385,1.0925470618906015,0.7516510000000001,1.612575,-1.276758,1.2572726276581503,104.45221438357338,2.2467455,-0.0012431337257425533,-0.22270458504503515,-1.7166952214012887,0.19673140999999994,1.6350892360350917,1.1389619999999998,2.249431,-2.437484,2.685484889380431,213.17359914627983,3.42968125,-0.001066642938478124,-0.31269712392885685,-1.5978433209801228,-0.356839,2.174667759763344,1.245946,2.892852,-2.716138,4.809222138621579,386.4768754028952,4.41845675,-0.0011352571249420404,0.33470294068677636,-1.674615546830633,16.072588429999996,4.7026363600000005,1.6417714375459622,shaking_lr
-0.29601009999999983,11.725873364974913,9.0627265,21.270686,-17.695096,136.20876708901585,10657.359214386941,17.6774005,-0.0007743783624137326,0.29609226758868695,-0.987095923895545,-4.21043706,2.319948274890893,1.2755109999999998,-1.624615,-9.295488,23.056118634408982,3186.294691293501,2.6558434999999996,-0.00018411699539933298,-0.9573740110671781,-0.3040439143673148,-1.24927046,7.608760533721341,5.6459015,11.22701,-13.204321,58.87498117314894,4724.105755069281,10.8670945,-0.0006587806796371795,0.0735420500139786,-1.0293679337920634,-0.32477162,0.9800207669512174,0.6835745,1.298242,-2.014481,1.0563129017765198,90.76590013805959,1.7798427499999998,-0.00010143492826436275,0.2955122091934969,-1.1728884961286168,-0.47941912,1.4664366081282245,0.9179355,2.479433,-2.437484,2.3587746550236,202.23825020446512,2.46768325,-0.00017575899071677726,0.5523872737140241,-1.0781761261810632,0.6860338699999998,2.157959845976337,1.145813,3.328698,-3.25173,5.08086526066493,433.8029774282203,3.6933914999999997,-0.0005214292623088083,-0.5889370543192748,-1.1616222727845078,20.24252008,4.3749636700000005,1.2469103534106927,shaking_lr
0.5538282200000002,12.53202783665722,10.5851395,22.939594,-17.695096,155.7879301790323,12201.42031923854,21.05430975,-0.0008491238153782166,0.29341979551826586,-1.0597861791805308,-3.24442608,3.070086396485721,1.982249,0.475399,-9.295488,19.85747676565198,2374.3024415060154,4.65227075,-0.0005932154774389483,-0.6370879386028218,-0.8906952207556191,-0.6681902799999999,8.1785220072932,6.856769,13.940688,-13.204321,66.66581825182784,5247.425993469325,13.6071085,-0.0008333250912223254,0.11580169032692358,-1.0635364970654557,0.35752846000000005,1.0400678219224324,0.6281505000000001,1.632707,-2.014481,1.19875026316646,103.64220440719568,1.4371412499999998,-0.00014571852682115954,-0.846500209693246,-0.4901557070091451,0.5835447199999999,1.4120003478476133,0.8412839999999999,2.479433,-2.000475,2.31433197273844,207.41890547442594,2.71125525,-0.00023060078783224266,-0.4436254540739456,-1.3654090316403853,-0.7292075,2.2425148388817133,1.3561005000000002,3.328698,-3.25173,5.510327652634881,472.0661814571478,4.176248,-0.00034023777665417285,0.48856721945221687,-1.3236992570503543,20.65273208,4.5385354,1.9387108802079747,shaking_lr
3.6793327799999997,10.861252514445674,6.457237,22.939594,-15.814301,130.32462782670945,11242.19832324138,11.601104,-0.0006189829956328804,-0.02123744026581852,-0.6378498580466805,-1.5156718,2.3669401293095818,0.635436,0.548422,-7.51076,7.843642525293941,793.5255236663137,1.8261027499999998,-0.001014578912904313,-1.4759546246067572,0.6866936019906893,0.07586619000000012,9.046188497971587,5.6907935,13.940688,-16.675016,81.02094675621021,6338.359063097907,11.477503500000001,-0.0009906052571598874,-0.5297405264220365,-0.7452832710741806,-0.28032497999999995,1.4230009856369876,1.199244,1.632707,-3.292634,2.0832645814846,168.89664094256085,2.40878425,-2.5960751287136617e-05,-0.3538824154647257,-1.1525527391644899,0.13603325000000002,1.6395139455747882,1.6382765,3.12047,-2.273581,2.67963096306243,210.87531884059513,3.1610015000000002,-0.0007918891998438334,0.026581000634295443,-1.4343144974518056,0.62746356,2.58011690301362,2.1352515,5.317439,-3.232479,6.984143720012299,576.9872904099606,5.1956025,-0.0009401595613481126,-0.05826001324475631,-1.308630808534439,18.00791891,5.04968219,2.011728296345592,shaking_lr
-1.07556216,6.772621465220312,2.6363149999999997,9.186701,-15.814301,46.56655145607514,3731.476416608752,9.58960075,-0.0008525513740215763,-0.8835499358544896,-0.3960085546540575,-5.05658235,3.614323387401735,2.3024739999999997,0.548422,-10.688015,38.50172527556349,5011.408183344087,7.348104,-0.0011139965111115712,0.42571235375560545,-1.3369848675513027,-4.059062180000001,6.663492959932039,3.2068835,6.37546,-16.675016,60.43410282389957,6010.1866890664505,9.3973905,-0.0005090745997277433,-0.6462542075172567,-0.8703362730223758,-0.21960139999999995,1.4824728543220402,1.0991525,2.267035,-3.292634,2.22397328104568,177.66192744128426,2.09548625,-0.00023187894548661714,-0.14283445169134865,-0.8349551586360411,0.68153533,1.8142891673944237,1.4044400000000001,3.598997,-2.273581,3.7232191371337104,327.39895621753436,3.3160184999999998,-0.001237539784262036,-0.2916367681954189,-1.3295167006857356,1.1440523100000002,1.8091383131083372,1.01451,5.317439,-0.981183,4.549107309613251,458.0164538314942,3.08547475,-0.0006772496400199936,0.703056195021341,-0.8125599420051381,15.964641450000002,4.45148032,2.658007497908965,shaking_lr
3.5657309300000004,2.690540298773713,1.9637689999999999,9.046641,-2.903418,19.881054093490754,2547.3675150069944,3.98552275,-0.00015633874382235647,0.016019853434959062,-0.5825744305401752,-5.97834249,2.6123596986612054,2.2590044999999996,-0.75552,-10.571448,42.49675789097677,6113.10265749851,4.482955250000001,-0.0006995045840332418,0.14131786262456872,-1.0632580463887047,-1.4510881999999998,10.418929885079402,4.621707,22.481853,-14.627225,109.57421591487791,8754.389302456255,10.377629500000001,-0.001261877232658488,1.0212694390819355,-0.2214793601541456,1.14544853,1.6720368815770206,1.2372065,4.655999,-2.553768,4.079802594899431,421.5237752849691,2.4472405,-0.0006941131848779808,-0.0010417411943320235,-0.5906576609740624,-0.24220466999999996,1.892252601605235,0.896344,3.179752,-6.282501,3.6034768113687705,286.36948379948103,2.01630625,-0.00048120188842450877,-1.1981607595356356,1.6573240536318128,-0.46769261,1.093198321475572,0.7121930000000001,1.473961,-2.924452,1.40186812182485,126.61369492483016,1.3582665,-1.4873401049672489e-05,-0.3946142568223822,-0.5403712193026653,18.5873756,3.9177692499999996,0.8053785227215128,shaking_lr
1.101053,3.3083730049947535,1.8739865,8.413225,-8.889521,12.048196329585242,1052.1453287251989,3.65007275,-0.0017901513440900124,-0.2678738067966481,0.6458264244557892,-5.24060514,2.270700937519042,0.8689455000000001,-0.75552,-10.571448,32.56846415356778,4691.530382626844,2.2132895,-0.0008431348274387572,-0.6115219679765721,0.006419362914485305,1.3397398900000004,10.358977888963265,7.2019085,22.481853,-17.476026,108.03024164784667,8581.010467802595,14.092346,-0.00020765547053349596,0.42134156323940064,-0.8049694054939551,0.06254867999999993,2.3142944177652964,1.3912375,4.655999,-3.028307,5.30631140294836,415.004949124797,4.241987,-0.0007233755389645419,0.47553603075877054,-1.280254620596878,-1.0735862500000002,1.71535243482167,1.3694190000000002,3.179752,-3.51144,4.06559707208121,408.7563244445863,2.780334,-0.0007363327380474461,0.3602733763697725,-0.9759064016106875,0.25308089999999994,0.7390552980197493,0.5054569999999999,1.736959,-1.134959,0.60479064814056,52.258649547213984,1.0476645,-0.00034572313028809177,0.19544637447872393,-0.8770833838270189,16.21616127,4.42744511,0.14535971531305003,shaking_lr
-2.22138813,4.953421784713649,3.012504,7.715764,-11.047146,29.22558872760788,2669.1452945727747,6.87734425,-0.00039946217310962473,-0.22433284902275274,-0.7704563312059793,-4.37277442,1.222221953730703,0.7617305000000005,-2.109741,-7.932888,20.600044367345824,3104.2685421209862,1.44890375,-0.0009020832724210757,-0.711111579877488,0.43582216446426525,-4.01425914,9.324244566210028,6.400074999999999,16.103849,-20.897789,102.1863978062658,9244.361835710699,12.511537,-0.0004939665124666472,-0.11656915351228911,-0.7541501016987704,0.053199790000000045,2.0078925450417833,1.536013,3.221728,-3.028307,3.99414636536607,313.28490439222475,3.865436,-0.0013401175196822272,0.1649576545696229,-1.5152207356085872,-0.20668814000000008,2.4391287444351684,2.4745785,3.407112,-3.51144,5.93257552882724,467.51566297054313,4.83346875,-0.0012801161769238842,0.07295365889598464,-1.6680383608614455,-0.21267678,0.9477797728833315,0.7661979999999999,1.736959,-1.817742,0.93453504565908,76.55234464872643,1.5330535,-0.0001616045527082444,0.19868362191856342,-0.8266276281260039,16.69277951,4.929782090000001,0.5385169038534463,shaking_lr
0.46331841999999995,6.749974283409558,5.6523354999999995,10.815207,-11.047146,45.32119525673479,3559.4952247438932,11.4925795,-0.0008006845138031368,-0.2234094771820747,-1.0945376223167003,-4.524788269999999,1.4211401542967896,0.9258830000000005,-2.109741,-8.450784,22.47315183310275,3355.605940014525,1.8275610000000002,-0.0004886228695783888,-0.8100288932854466,0.373483768610543,1.25243086,11.51374472398539,6.568043000000001,22.682218,-20.897789,132.80923745249075,10511.64988199963,12.0341555,-0.0010366107262543742,-0.2917616134355613,-0.5109094539614949,0.54991877,1.7696687895396082,1.864859,3.221728,-2.130657,3.40282100202219,289.53096565105415,3.46211525,-0.0002320854165670248,-0.02381334198995199,-1.6451626167927595,0.029857489999999966,2.427917666473447,2.125471,3.407112,-3.640365,5.836727822931229,456.25415083644066,4.9994767499999995,-0.0005537062434837714,-0.18449962601102637,-1.6104545588301808,-0.02963766999999997,1.163437726844715,1.0131709999999998,2.100898,-1.817742,1.34092986228617,104.88906857397932,1.95044975,-0.0005867792515427944,0.20772277173855985,-1.3075749944213364,19.434141870000005,4.96254331,1.5390572551974544,shaking_lr
-1.34211915,7.34685736981629,6.2185645,10.815207,-12.435783,55.23783389309645,4458.754149986148,12.108787,-0.0008589236234471385,0.12255547388923069,-1.2559550500908174,-4.11055395,1.7815384124264788,1.1018569999999999,-0.61112,-8.450784,20.038794099662148,2886.17303369537,2.11812,-0.0005784843480458562,-0.1985202553946556,0.02728620065267995,-1.31558094,12.325453294953064,9.0440965,22.682218,-21.368848,152.12838414649988,12023.868103735016,17.1417355,-0.0005058771351561398,0.09289570961941263,-0.8534514506766127,-0.04417342999999993,2.0764438653622865,1.3383425,3.430409,-3.44997,4.27045422665863,333.9476389310335,3.66505275,-0.0006927355946684063,0.2983054201576443,-1.2693839776365754,-0.5575616699999999,2.1114255809274765,2.0393485,2.557004,-3.640365,4.72441181981017,393.3883295087497,4.30009025,-0.00017875676761095803,0.12222876199162681,-1.4688910105264774,0.36952155999999997,1.3317777116706275,1.0850605,2.607816,-1.801708,1.8924417378744602,158.60657665006335,2.404896,-0.0007135076615386652,-0.09948731560998383,-1.2665407059609421,20.517543579999998,5.02790322,0.907711235861969,shaking_lr
-0.6171683300000003,8.065758880722289,6.6283475,14.668974,-12.435783,64.78679840628598,5091.498881661609,12.44277825,-0.00028094935394515325,0.2199667939178654,-1.0753418012173603,-3.76427456,1.6573587527261462,1.3306525000000002,-0.61112,-6.266673,16.889132617948782,2426.5588919775696,2.8092962499999996,-3.21752939148177e-05,0.09012443022959654,-1.093923210181295,-0.15617828999999975,12.938141159214053,10.0324535,21.381717,-21.368848,165.74593334745856,12951.58238547635,19.40687525,-0.0002940060737516556,-0.07196275807129443,-1.1168547756437486,0.35991157,2.2111921781986554,1.99608,3.430902,-3.44997,4.97001347865751,398.4026773963123,4.08772,-3.0076532767578026e-06,-0.03691563717280274,-1.4625226737517707,0.13958157,2.0801501890469654,2.0009704999999998,2.771804,-3.816465,4.303237575585871,337.713602754211,3.95034125,-6.08107153654362e-07,-0.3248784531088204,-1.250044255709844,0.025220569999999998,1.4467256731206466,1.197336,2.607816,-1.852427,2.07272109868485,161.9812519183632,2.35400925,-2.1475817130252104e-05,0.3197295757068726,-1.297317950405415,21.59840298,5.13116191,2.104619048671727,shaking_lr
-1.2560296200000003,9.066556505226046,6.1385085,14.668974,-18.174385,82.95803280014948,6604.681115704335,12.34652375,-0.00023443012604747437,-0.12103387956028827,-0.8658199370772848,-4.1980844600000005,1.4881545280094737,1.306262,-1.397316,-6.354062,19.81637099353624,2925.179372080254,2.7055225,-0.0005417961694867356,0.02200065464151488,-1.328378151540506,0.2864767299999999,12.554264640652963,8.6982845,21.381717,-23.417986,156.11553397770524,12203.570128916364,17.091832,-0.0002780321895599604,-0.1251472142201366,-0.899075589617583,-0.00921439999999999,1.9758041934668507,1.1443685,3.430902,-2.415313,3.8648490939793403,302.0734278208258,3.8623135,-0.0007239313439766299,0.3484812937575926,-1.564398692893847,-0.22415280999999992,2.1998680100449772,2.243215,3.042151,-3.816465,4.84126955123395,382.16435604037355,4.429365,-2.136387124473497e-06,0.017241393803516677,-1.466462804013188,0.25173152000000004,1.6605204870859893,1.736267,2.711722,-1.988207,2.7931237633134804,223.1805778219047,3.4329495,-2.8063617192284004e-05,0.047245747418530784,-1.584231933022362,22.09444263,5.336863050000001,0.8064952310599742,shaking_lr
-1.85697124,8.51779961036975,5.669395,14.433295,-18.174385,75.27572328657801,6150.819437522461,11.013253,-0.0003081370902671601,-0.14078797889074812,-0.6689371514817468,-4.57705513,1.9830468083809447,1.2794759999999998,-1.709909,-8.259846,24.842583560846865,3577.7069172369256,3.0937199999999994,-0.0005285846840484413,-0.49339582846567864,-1.0560842766990048,-0.11114034999999994,12.271409649923335,9.5735145,19.873221,-23.417986,149.09397202566743,11649.852212016682,17.797297750000002,-0.00033671624409082663,-0.11758008469616181,-0.8732444879897625,0.29245002000000003,1.8911259422743825,1.8020865,3.075422,-2.415313,3.6261207704457403,290.05065668192685,3.66866175,-2.7528061934566906e-05,-0.04456395325385841,-1.679390127163124,0.4001464099999999,2.160926607599919,2.3096905,3.180348,-3.300347,4.78302491483485,386.2338159939979,4.607823,-0.0005497463389539214,-0.18581877235691246,-1.4469996227001622,0.10349456999999994,1.5586529403713218,1.330858,2.711722,-1.988207,2.4158161246623693,189.6686199718342,2.54838625,-0.00045986249943013994,0.23341891009031526,-1.3700009534045328,21.504417,5.12760444,2.836574832946095,shaking_lr
-0.44831576,7.40226520361358,3.658564,14.433295,-13.885173,54.446581863846525,4271.753706374673,8.20608925,-0.0007092410871814584,-0.11301649934703997,-0.5357763534495352,-5.24077419,1.81815042714104,1.4553004999999999,-1.856703,-8.259846,30.73832837652617,4547.890732663062,3.1178862499999997,-0.0007507763362903425,-0.08221148326797115,-1.1941828206929954,0.9269750000000003,11.802705965439824,8.1233765,19.873221,-21.862204,138.7701120761875,10912.167528659542,16.421342250000002,-0.0005772078382714142,-0.266051819782008,-0.7139177241115977,-0.16210999999999995,1.8258249860403801,1.1535305,3.075422,-2.731328,3.32658016295286,261.9681940722224,3.4852849999999997,-0.0003192376067944154,0.3083235598877193,-1.4822859821663752,-0.25264068000000006,2.083959271797825,1.9442035,3.180348,-3.300347,4.3632846972378605,345.9835396814024,3.41504025,-0.000561894728672622,0.31819864281878035,-1.228539131629158,0.3780299900000001,1.2462703515772955,1.0782595000000001,2.159039,-1.800969,1.6805645646677896,142.47047359182787,2.4481562500000003,-0.00029545285780927514,-0.2263934682421295,-1.4277750624443803,20.436139129999994,4.69387709,0.8262134834331918,shaking_lr
-2.3041333,6.485681859197713,3.6711339999999995,11.752687,-13.885173,46.95245875110791,4086.1090348893395,8.522796750000001,-0.0007707232227830128,0.06513491384908714,-0.4351466759214282,-4.620527859999999,1.8172899148441846,1.1972505,-1.137545,-7.962516,24.618794913284624,3592.150201425279,2.54028525,-0.0005574047709934503,-0.06332569179942858,-0.8333280148276261,-1.6412986000000003,11.157268990286916,4.722413,24.53518,-21.862204,125.9336659027638,10069.784912107261,11.22588775,-0.00112104629429572,0.30529711582263475,-0.03361983021882109,0.47231254000000006,1.957956779481556,1.2180615,3.662552,-2.731328,4.01833793825586,331.47239112872114,3.688319,-0.0005551964842846687,-0.26168531281035134,-1.4340897444131424,0.46595561999999996,1.9778701272600412,1.4914425000000002,3.271531,-3.260536,4.08996517771416,336.95814864508435,3.491376,-0.0009627010000315963,-0.3966798963309773,-1.2533484738690173,-0.05092771999999999,1.3966190513486136,0.931735,2.159039,-2.142919,1.9336329595084,151.2744303777557,2.9552685,-0.0002243784867126484,0.2863339327869029,-1.461520817550299,18.358439019999995,4.961649199999999,2.638056524017996,shaking_lr
1.18100732,4.236861153035399,1.6777365,11.752687,-7.737162,19.16626079569302,1607.6047186383157,3.3525185000000004,-0.0006943267229947449,0.553127054562602,0.4710804577207006,-4.62897793,1.9308811557941552,1.3863180000000008,-1.137545,-8.425046,25.11845569385004,3637.951744955504,2.6391590000000003,-0.0009804363855876513,-0.16864607962441597,-0.7425132361200304,5.0825324499999995,8.88250480153407,4.720019,24.53518,-8.878149,103.94203873908609,10138.629926330945,13.37610525,-1.6479215624258695e-05,0.625892469160864,-0.6866250409446439,0.04760536000000006,2.0416350003379993,1.8099805,3.662552,-2.891079,4.12885701015982,323.7332879212872,3.75320875,-0.0013362291026456556,0.1592377967318146,-1.5486652678505732,0.012900100000000015,2.1945747248354146,2.1447615,3.271531,-2.86617,4.768163053237579,373.138800131468,4.19746975,-0.0011537848681185687,0.06115409016780935,-1.7368905186974357,0.012529190000000003,1.2015967449456466,1.0113335,2.093334,-2.142919,1.4295533706913899,112.42218518818866,2.01506175,-0.0016062519188318762,-0.24887554023386954,-1.4025515190758444,15.180245540000001,5.105059290000001,1.400411513321043,shaking_lr
