SamplingTime, AccelerationX, AccelerationY, AccelerationZ, GyroX, GyroY, GyroZ, MagneticFieldX, MagneticFieldY, MagneticFieldZ
1733469105,6.718728,-6.968773,0.752079,-0.412833,0.239785,-0.277223,-17.98851,-82.486099,-610.516907
1733469105,6.696283,-7.101651,0.434997,-0.197743,-0.020699,-0.463616,-17.856842,-82.492935,-610.057739
1733469105,7.009923,-7.033267,0.01646,0.01861,-0.18319,-0.586149,-17.563156,-82.395279,-609.826843
1733469105,7.474997,-6.881235,-0.492308,0.244492,-0.204244,-0.613045,-17.22435,-81.940918,-610.283691
1733469105,7.668778,-7.046884,-0.680253,0.501102,-0.257539,-0.602968,-16.706741,-81.89389,-610.035767
1733469105,7.52318,-7.262362,-0.346561,0.675521,-0.272449,-0.61174,-16.444916,-81.556168,-609.649414
1733469105,7.371448,-7.059453,0.033968,0.739721,-0.257032,-0.582881,-16.156967,-81.315598,-609.499146
1733469105,7.076213,-6.980145,0.272789,0.735488,-0.187801,-0.566077,-16.00444,-81.024658,-608.801819
1733469105,6.585252,-7.087735,0.101454,0.687684,-0.007541,-0.596795,-15.653976,-80.76355,-609.222778
1733469105,6.016629,-6.956054,0.335338,0.599334,0.166762,-0.67965,-15.589935,-80.735275,-608.484253
1733469105,5.526416,-6.690746,0.861314,0.474317,0.234524,-0.807231,-15.388,-80.805222,-608.582458
1733469105,5.12419,-6.510732,1.360206,0.37184,0.155304,-0.992325,-15.03714,-80.302307,-608.355774
1733469105,4.973655,-6.356156,1.638981,0.281545,-0.012061,-1.199027,-14.372238,-79.742401,-607.255859
1733469105,5.170877,-5.939116,1.260547,0.207815,-0.117752,-1.362787,-13.631592,-79.437164,-608.145691
1733469105,5.482572,-5.434688,0.49156,0.16558,-0.108335,-1.478242,-13.257401,-79.154434,-607.646179
1733469105,5.512799,-5.046379,0.072874,0.171578,-0.122554,-1.594483,-12.7565,-78.888748,-608.264282
1733469105,5.550957,-4.891653,0.037559,0.208277,-0.069306,-1.779585,-12.142944,-78.031952,-607.850464
1733469105,6.004957,-4.280833,-0.906654,0.279697,0.059402,-1.883157,-11.510956,-77.495575,-607.244507
1733469105,6.654833,-3.456928,-0.50802,0.407112,-0.002846,-1.896095,-11.044678,-76.889175,-607.703552
1733469105,7.024139,-3.228731,-0.125396,0.531432,-0.10457,-1.940556,-10.354446,-76.34404,-606.93927
1733469105,6.919542,-2.936039,-0.287304,0.639765,-0.155177,-2.020353,-9.611328,-75.709442,-607.149414
1733469105,6.932112,-2.322376,-0.157119,0.733807,-0.262421,-2.064931,-8.894211,-74.805679,-606.346558
1733469105,6.859238,-1.711106,0.315286,0.819999,-0.428967,-2.123688,-8.264511,-74.030457,-606.87262
1733469105,6.444742,-1.319205,0.480187,0.890017,-0.568457,-2.219963,-7.181519,-73.30983,-606.616638
1733469105,6.238541,-0.894833,0.361674,0.928978,-0.635628,-2.311852,-6.500946,-72.380493,-606.117554
1733469105,6.360197,-0.407762,0.321122,0.908562,-0.642255,-2.3825,-5.8125,-71.871353,-606.588745
1733469105,6.583306,0.195127,0.652869,0.858486,-0.770677,-2.435685,-5.130966,-70.610443,-606.286255
1733469105,6.594978,0.841412,1.418564,0.842742,-1.252175,-2.509433,-4.212814,-69.934555,-606.043579
1733469105,6.339846,1.024269,1.280898,0.909879,-1.762928,-2.614462,-3.132324,-68.717072,-607.086975
1733469105,6.126463,1.060482,-0.266355,1.025259,-1.955322,-2.74574,-2.10144,-67.613052,-606.791687
1733469105,6.260388,1.727865,-1.426196,1.109474,-1.871903,-2.815407,-1.246094,-66.385803,-607.282837
1733469105,6.795044,2.452111,-1.817798,1.094851,-1.614806,-2.817767,-0.438049,-65.02388,-607.94043
1733469105,7.401375,3.211223,-1.735946,0.974125,-1.27878,-2.797277,0.514511,-63.987503,-607.453186
1733469105,8.057536,4.138527,-1.82094,0.812779,-0.813871,-2.748255,0.826935,-62.866119,-608.225647
1733469105,8.641422,4.833744,-1.504456,0.655718,-0.43298,-2.685079,1.043243,-61.813004,-607.54071
1733469105,9.36477,5.512649,-0.735918,0.497391,-0.200025,-2.675472,1.482697,-60.617889,-607.533691
1733469105,10.740987,6.785766,-0.155174,0.309266,-0.029372,-2.627817,1.747711,-59.506409,-608.093628
1733469106,12.539332,8.332869,0.443675,0.118617,0.010152,-2.508326,1.934372,-58.613968,-607.668884
1733469106,14.126688,10.101137,0.993294,-0.067517,0.006797,-2.390024,1.740005,-57.512161,-607.710938
1733469106,16.762554,12.122442,1.162086,-0.291974,-0.007176,-2.095705,2.171707,-56.989944,-607.4776
1733469106,20.174142,13.816489,0.820912,-0.419386,-0.095096,-1.536553,2.399689,-56.399887,-607.428345
1733469106,22.64406,14.999673,0.11148,-0.391756,-0.217812,-0.796478,2.377716,-55.94278,-608.097778
1733469106,24.002021,15.793052,-0.455347,-0.328558,-0.271569,0.029381,2.388092,-56.14653,-607.311401
1733469106,24.083274,16.141708,-0.453252,-0.306577,-0.26244,0.843858,2.347046,-56.751648,-608.315308
1733469106,23.10255,16.163555,-0.179864,-0.35662,-0.124401,1.569926,2.263962,-57.520233,-607.992432
1733469106,21.862952,15.969175,0.30152,-0.466442,0.011907,2.222752,1.784363,-58.517365,-608.158997
1733469106,20.589985,15.581015,0.667384,-0.561265,0.111786,2.786059,1.342087,-59.62648,-608.849365
1733469106,19.386449,14.984111,0.853832,-0.648466,0.169019,3.274405,1.037216,-61.347458,-607.856628
1733469106,18.096573,14.514249,1.006014,-0.71476,0.213229,3.683542,-0.030594,-62.935242,-608.718384
1733469106,16.827048,14.019397,1.074697,-0.746522,0.224669,3.988741,-0.875565,-64.537552,-608.737427
1733469106,15.904382,13.328371,1.302446,-0.719532,0.109275,4.22585,-1.73732,-66.244812,-608.029663
1733469106,15.408932,12.665177,1.571943,-0.605622,-0.189227,4.468556,-2.804688,-67.769363,-609.472046
1733469106,15.043667,12.021735,1.575834,-0.39098,-0.616694,4.774293,-3.790771,-69.833862,-609.391296
1733469106,14.496293,11.437251,1.11076,-0.087612,-0.984897,5.112128,-4.726456,-71.760818,-610.296631
1733469106,13.83684,10.984448,0.502034,0.244408,-1.223341,5.461833,-6.255234,-73.575241,-610.295349
1733469106,13.029994,10.646865,0.279822,0.561663,-1.335287,5.804269,-7.978134,-75.20929,-610.791504
1733469106,11.884817,10.322301,0.333243,0.813466,-1.380379,6.127686,-9.531845,-77.231079,-610.10498
1733469106,10.927286,9.800964,0.634912,1.00176,-1.42236,6.472785,-11.510071,-78.932587,-611.187012
1733469106,9.60449,9.351153,0.888249,1.154796,-1.463334,6.841172,-14.113739,-80.890808,-610.746948
1733469106,8.164377,8.920496,1.148768,1.281866,-1.518406,7.266505,-16.45285,-82.443024,-610.062622
1733469106,6.565649,8.413973,1.095347,1.394082,-1.470122,7.717176,-19.451736,-84.112762,-610.386536
1733469106,4.93445,8.061277,0.952593,1.473815,-1.317997,8.142276,-23.158279,-85.587372,-609.248352
1733469106,3.982605,7.928848,1.241992,1.517453,-1.200623,8.578806,-26.749039,-86.593689,-609.294312
1733469106,3.239355,8.191911,1.347038,1.545127,-1.020599,9.068423,-30.631851,-87.312042,-608.6604
1733469106,2.400786,8.699032,1.613093,1.492946,-0.77613,9.627091,-35.12674,-87.952866,-607.417725
1733469106,1.316212,9.469816,2.268057,1.308633,-0.537373,10.296834,-39.569611,-87.852936,-607.705078
1733469106,-0.368857,11.054478,2.778471,1.05299,-0.265572,11.074534,-44.753632,-87.078735,-607.119141
1733469106,-4.069544,12.355427,3.147477,0.716006,0.212505,11.731484,-49.905624,-85.908508,-607.506409
1733469106,-11.136629,10.972477,3.702034,0.126799,0.875288,11.839574,-55.233932,-84.057602,-606.89032
1733469106,-18.13937,7.911041,4.119074,-0.78119,1.49131,11.377376,-59.36232,-81.658371,-608.418945
1733469106,-21.761797,6.481254,3.564218,-1.725398,1.848015,10.734934,-63.783661,-79.103287,-609.551453
1733469106,-21.867291,5.972785,1.246032,-2.236087,2.022098,10.265221,-67.120438,-76.292755,-611.575562
1733469106,-22.044761,4.680365,-1.973271,-2.245765,2.194921,9.851519,-71.345627,-73.165131,-612.585938
1733469106,-26.260651,2.206257,-3.133411,-2.094588,2.067106,8.913212,-74.661667,-70.146667,-614.526062
1733469106,-31.852908,-2.697517,-1.472284,-1.99533,0.809099,7.188727,-76.389359,-67.944168,-614.327576
1733469106,-36.586394,-8.360552,-1.669806,-1.532567,-1.104292,4.883265,-76.338867,-66.415405,-614.59906
1733469106,-37.312436,-11.997195,-5.189282,-0.365345,-3.089262,2.736758,-75.748199,-65.686111,-611.947998
1733469106,-34.929756,-13.167361,-8.754548,1.172344,-4.527636,1.187778,-75.114212,-65.084976,-608.769287
1733469106,-32.352398,-13.742718,-10.406547,2.430149,-5.009072,0.111152,-74.459518,-64.834641,-606.549194
1733469106,-30.215872,-13.625701,-9.087791,3.046733,-4.643555,-0.627664,-73.94101,-64.784073,-603.944763
1733469106,-27.808802,-13.185617,-7.078756,3.02606,-3.512864,-1.099885,-73.595535,-65.058151,-602.630249
1733469106,-24.882339,-13.234698,-4.908562,2.504085,-1.944081,-1.371344,-73.883026,-65.455399,-601.825623
1733469106,-22.104616,-13.381343,-2.456451,1.666136,-0.319566,-1.553851,-73.77417,-66.126175,-601.991943
1733469106,-19.920955,-13.313407,-0.247201,0.754151,1.109146,-1.773352,-74.248322,-66.875229,-602.080994
1733469106,-18.466328,-12.846987,1.554585,-0.014177,2.064402,-2.028692,-73.685318,-68.067245,-603.564331
1733469106,-17.277158,-12.286893,2.911648,-0.534791,2.308916,-2.320478,-73.570084,-69.184662,-605.048218
1733469106,-16.292692,-11.933,3.214665,-0.790607,2.037268,-2.640821,-73.147736,-70.228867,-605.812805
1733469106,-15.971121,-11.461043,2.517653,-0.823128,1.556847,-3.037014,-71.926071,-71.611877,-606.434021
1733469106,-16.227001,-10.795156,1.434725,-0.713809,1.071958,-3.507438,-70.643097,-73.179443,-606.757141
1733469106,-16.258275,-9.597457,0.362422,-0.536168,0.792317,-3.953302,-69.114761,-74.620941,-607.367798
1733469106,-15.693244,-8.185775,-0.675913,-0.350579,0.851656,-4.322518,-67.774948,-76.212967,-607.375183
1733469106,-14.591312,-7.428609,-1.301698,-0.21177,1.125754,-4.630098,-66.43335,-77.839935,-608.044067
1733469106,-13.267917,-6.953659,-1.003919,-0.135474,1.377043,-4.891418,-64.824814,-79.19162,-608.421814
1733469106,-12.251878,-5.973384,-0.100856,-0.085178,1.476549,-5.156492,-62.874115,-80.721954,-609.168762
1733469106,-11.155184,-5.160702,0.404321,-0.019659,1.510207,-5.46133,-60.845078,-82.163193,-609.497559
1733469106,-9.910498,-4.326622,0.760159,0.085906,1.449185,-5.761236,-58.579453,-83.654709,-609.631226
1733469106,-7.604882,-2.16765,1.753603,0.326889,0.953328,-6.290981,-56.007156,-84.96022,-609.592163
1733469106,-7.604882,-2.16765,1.753603,0.413101,0.579837,-6.563336,-53.364319,-86.089706,-609.161255
1733469106,-5.766435,-1.083975,2.009783,0.479343,0.199965,-6.831913,-50.279816,-86.994431,-609.512512
1733469106,-4.504242,-0.183905,1.534234,0.519513,-0.112094,-7.051351,-47.265732,-87.593979,-609.153442
1733469106,-3.120243,0.726341,0.957232,0.574624,-0.388363,-7.185,-43.870117,-88.145248,-608.977783
1733469106,-1.935562,1.836053,0.384718,0.662437,-0.605692,-7.180091,-40.255539,-88.129227,-608.757507
1733469106,-1.132906,2.827103,-0.281618,0.80101,-0.701069,-7.115936,-36.893143,-88.213669,-607.83136
1733469106,-0.352845,3.362656,-0.796521,0.982662,-0.634327,-7.049676,-33.593445,-87.835297,-607.779785
1733469106,0.645537,3.445107,-0.773776,1.131222,-0.548011,-6.993415,-30.71283,-87.303467,-607.2323
1733469106,1.790264,3.208081,-0.38382,1.175599,-0.46562,-6.939866,-27.804642,-86.419312,-606.661499
1733469106,2.736872,3.375675,0.248997,1.074309,-0.360479,-6.889888,-24.883835,-85.33638,-605.344055
1733469106,3.39004,3.917363,1.256507,0.828885,-0.379344,-6.868848,-22.084549,-83.986618,-605.401794
1733469106,4.1086,4.392462,2.072032,0.508274,-0.533662,-6.848485,-18.893631,-82.717239,-605.531555
1733469106,5.039046,5.011663,2.104204,0.189284,-0.674819,-6.719961,-16.675385,-81.333893,-605.974854
1733469106,5.997176,5.891831,1.728614,-0.072494,-0.756531,-6.529125,-13.86438,-79.854263,-605.760254
1733469106,7.392995,6.73444,1.323694,-0.278365,-0.807885,-6.261704,-11.670074,-78.091187,-606.102539
1733469106,8.858696,7.141904,0.690727,-0.47939,-0.778049,-5.930245,-9.733719,-76.510742,-606.325928
1733469106,9.732879,6.864924,-0.636858,-0.624281,-0.453811,-5.723732,-8.310242,-74.688202,-606.759766
1733469106,10.975619,7.089081,-1.860444,-0.68762,0.050853,-5.474706,-6.635132,-72.990829,-606.585083
1733469106,12.633155,8.371775,-2.00275,-0.664033,0.436367,-5.083594,-5.268417,-71.54007,-607.227722
1733469106,12.633155,8.371775,-2.00275,-0.664033,0.436367,-5.083594,-5.268417,-71.54007,-607.227722
1733469106,15.989526,9.452607,-1.369783,-0.401427,0.685293,-4.135321,-3.506012,-68.610397,-606.903931
1733469106,17.364396,9.780015,-0.521637,-0.192781,0.370916,-3.588826,-2.949066,-67.125854,-606.910156
1733469106,17.662325,9.664794,-0.065242,0.011808,-0.012869,-3.120443,-2.272095,-65.994568,-607.260254
1733469106,17.074399,9.410559,-0.033968,0.143732,-0.24019,-2.800871,-1.701416,-64.914703,-607.286438
1733469106,16.065692,9.495404,-0.080505,0.193145,-0.25098,-2.626421,-1.213226,-64.012589,-607.497803
1733469106,15.442152,9.884611,0.191536,0.137906,-0.087896,-2.577358,-0.949585,-63.057739,-607.329468
1733469106,15.398458,10.808923,0.807893,0.001635,0.171483,-2.613338,-0.546097,-62.005493,-606.98584
1733469106,16.525229,12.037298,1.935712,-0.222858,0.31284,-2.623123,-0.588867,-60.964233,-606.968689
1733469106,18.435054,13.180978,2.989909,-0.424251,0.227363,-2.547741,-0.069962,-60.106308,-606.763794
1733469106,20.773889,14.379276,3.172916,-0.503172,-0.066298,-2.298348,0.17955,-59.166092,-606.681091
1733469106,23.267301,15.277251,2.711433,-0.446443,-0.498852,-1.816984,1.004715,-58.350739,-607.459717
1733469106,25.423579,15.70312,1.796848,-0.305389,-0.946292,-1.030987,1.443878,-58.049332,-607.865356
1733469106,26.262746,15.755194,0.422726,-0.091013,-1.178717,-0.091489,2.029602,-57.724472,-607.943298
1733469106,25.24955,14.694113,-1.020528,0.118179,-1.065705,0.807782,1.98111,-58.23497,-608.169556
1733469106,24.146272,15.256452,-1.185728,0.220356,-0.788888,1.812408,1.757889,-58.985214,-608.552612
1733469106,22.108657,14.454993,-0.871789,0.198735,-0.425267,2.604614,1.348297,-60.029877,-608.778198
1733469106,19.608811,12.938415,-0.001646,0.053344,-0.124494,3.196296,1.348297,-60.029877,-608.778198
1733469106,17.349283,12.43698,0.806397,-0.181849,0.164997,3.645185,0.978897,-61.395279,-609.016907
1733469106,15.405341,11.687744,1.389385,-0.509094,0.447509,3.948004,0.053085,-62.839783,-608.92749
1733469106,13.975254,10.858602,2.016666,-0.869638,0.572002,4.130106,-0.838394,-64.359039,-608.582764
1733469107,12.96939,10.249428,2.278382,-1.146235,0.498505,4.25255,-1.711899,-66.271973,-608.432861
1733469107,12.372187,9.689484,1.707515,-1.293621,0.355592,4.369002,-2.716476,-67.916031,-609.155151
1733469107,12.066926,9.214235,0.852934,-1.334974,0.212946,4.5144,-3.862244,-69.543137,-609.267212
1733469107,11.693131,8.866627,0.05791,-1.295328,0.091639,4.685262,-4.817581,-71.312347,-609.531494
1733469107,11.41271,8.556727,-0.62773,-1.184036,-0.00219,4.911989,-6.238815,-73.138077,-610.330322
1733469107,11.155932,8.284087,-1.240645,-1.029853,-0.013781,5.170821,-7.512512,-74.788467,-610.479248
1733469107,10.649858,8.007557,-1.510741,-0.866719,0.021755,5.438045,-9.217728,-76.526627,-610.7146
1733469107,10.114155,7.651869,-1.216853,-0.719173,-0.015786,5.71295,-10.599777,-78.39418,-611.296936
1733469107,9.35265,7.441777,-0.686837,-0.572682,-0.114048,5.945897,-13.070801,-80.167603,-612.054565
1733469107,8.573636,7.279271,-0.218621,-0.41368,-0.315637,6.162805,-15.363647,-81.500916,-611.6875
1733469107,7.957578,7.088633,0.481683,-0.233142,-0.683944,6.42718,-17.387283,-83.207138,-612.246399
1733469107,6.842628,7.077709,0.812682,-0.030723,-1.052377,6.69177,-20.256241,-84.348022,-612.356018
1733469107,5.720795,6.941539,0.779762,0.128281,-1.301077,6.959986,-22.809479,-85.584091,-612.67804
1733469107,4.786608,6.983288,0.585382,0.247852,-1.37913,7.252117,-25.467819,-86.888229,-612.515686
1733469107,3.95148,7.022193,0.581492,0.318241,-1.364379,7.564411,-28.582855,-87.766693,-613.036499
1733469107,3.325845,6.983886,0.766893,0.334123,-1.33879,7.932322,-32.00914,-88.373672,-613.011963
1733469107,2.677166,7.269395,1.076792,0.323864,-1.302627,8.356375,-35.548904,-88.79776,-612.757935
1733469107,1.775151,7.855076,1.580023,0.235763,-1.209123,8.834407,-39.176926,-88.935532,-612.381836
1733469107,0.461183,8.777293,2.333898,0.055937,-1.164402,9.40209,-43.5065,-88.656021,-612.044495
1733469107,-1.501015,9.697714,3.062782,-0.187402,-1.142777,10.005893,-47.635986,-87.80864,-611.767334
1733469107,-3.987842,10.100089,3.021782,-0.542311,-0.953542,10.554678,-51.960251,-86.372604,-612.000305
1733469107,-6.221632,10.40954,1.722179,-1.014673,-0.329558,11.088923,-56.117371,-84.335419,-612.697937
1733469107,-8.508394,12.09416,0.034117,-1.525901,0.530606,11.744204,-60.224594,-81.713699,-612.561279
1733469107,-12.141446,15.194801,-0.569521,-2.014857,1.230471,12.475732,-64.425156,-78.275665,-613.610657
1733469107,-20.737527,14.829984,-0.245106,-2.503776,1.44556,12.375554,-69.622314,-74.245804,-614.978882
1733469107,-31.37721,8.053047,0.508768,-2.939052,0.728199,10.844998,-74.847397,-70.077087,-617.10907
1733469107,-39.68479,-0.513257,-0.370952,-2.941764,-0.629162,8.221382,-77.706253,-66.319107,-618.040344
1733469107,-44.050019,-6.780229,-4.378097,-2.228517,-2.153459,5.26823,-79.051956,-63.334,-617.968567
1733469107,-42.824337,-9.97604,-9.452757,-0.789002,-3.439201,2.823992,-79.169937,-61.560394,-616.876099
1733469107,-38.057481,-10.723031,-12.756755,0.780936,-4.100686,1.15438,-78.810974,-60.612976,-614.094421
1733469107,-33.126324,-9.779266,-12.669666,1.897671,-4.110034,0.168012,-78.305756,-60.214478,-612.448669
1733469107,-28.552351,-8.766519,-10.689961,2.435133,-3.47531,-0.306562,-77.880356,-60.04689,-610.061646
1733469107,-24.781484,-8.904036,-8.408436,2.353089,-2.312212,-0.459169,-77.850098,-60.071014,-608.296204
1733469107,-22.38384,-9.285612,-6.250213,1.797897,-0.818065,-0.500807,-78.233719,-60.004349,-607.167786
1733469107,-21.005229,-9.908404,-4.661062,1.057979,0.691542,-0.609128,-78.393112,-60.358398,-607.599731
1733469107,-19.662231,-10.686818,-3.501819,0.399968,1.83014,-0.841951,-78.959747,-60.72406,-607.983826
1733469107,-18.307263,-11.228955,-2.693776,0.0011,2.349335,-1.132722,-78.979965,-61.460129,-609.351135
1733469107,-17.167623,-11.170896,-2.292897,-0.074388,2.26619,-1.46666,-79.15361,-61.994583,-610.534119
1733469107,-16.624439,-10.659285,-2.175282,0.109917,1.795759,-1.834426,-79.111557,-62.846451,-611.193115
1733469107,-16.591967,-10.052654,-2.034622,0.4081,1.17633,-2.251117,-78.922745,-63.477356,-610.281982
1733469107,-16.312594,-9.435549,-2.123807,0.699603,0.702358,-2.641627,-78.15184,-64.717422,-611.955688
1733469107,-15.456667,-9.401282,-2.507178,0.899246,0.55842,-2.972935,-77.349106,-65.786255,-611.800415
1733469107,-14.285303,-9.809044,-2.583044,0.932072,0.715227,-3.233413,-76.457382,-67.060928,-611.572144
1733469107,-13.159729,-9.916933,-2.053626,0.802566,0.99995,-3.43541,-75.977066,-68.409561,-612.333618
1733469107,-11.904868,-9.259276,-1.194856,0.568982,1.272448,-3.564356,-74.907532,-69.794678,-612.518005
1733469107,-11.075128,-8.232462,-0.410007,0.317411,1.430587,-3.650985,-73.686981,-71.620682,-613.028931
1733469107,-10.763732,-7.441328,0.000748,0.135467,1.490955,-3.763572,-72.806564,-72.838638,-613.501831
1733469107,-10.403255,-7.063344,-0.023942,0.052401,1.475701,-3.917142,-71.740646,-74.192215,-614.212341
1733469107,-9.740211,-7.378331,-0.353444,0.046271,1.438322,-4.107773,-70.524948,-75.888641,-614.638245
1733469107,-8.84448,-8.134151,-0.737863,0.061426,1.431578,-4.313747,-68.844681,-77.238129,-614.457031
1733469107,-8.06846,-8.078635,-0.797868,0.061204,1.421113,-4.529427,-67.657822,-78.802628,-615.507812
1733469107,-7.224653,-7.257723,-0.630124,0.06814,1.368789,-4.708514,-65.649536,-80.132751,-616.202515
1733469107,-6.331616,-6.21849,-0.348955,0.101394,1.236914,-4.829279,-63.939636,-81.270264,-616.412292
1733469107,-5.449802,-5.514595,-0.197522,0.154098,1.088391,-4.948764,-62.079895,-82.764709,-616.405334
1733469107,-4.392313,-4.931607,-0.175076,0.216342,0.930601,-5.043976,-59.982773,-83.970917,-616.810364
1733469107,-3.197157,-4.623652,-0.237325,0.302941,0.766538,-5.101898,-57.864304,-85.09137,-616.638489
1733469107,-1.986888,-4.679467,-0.34686,0.430123,0.595747,-5.119271,-55.547638,-86.039612,-617.010681
1733469107,-1.287183,-4.490774,-0.088286,0.558798,0.38603,-5.130264,-53.710861,-86.892715,-616.530334
1733469107,-1.057339,-4.330662,0.511611,0.622353,0.104444,-5.194454,-51.195419,-87.722763,-616.364563
1733469107,-1.171812,-4.300136,1.082329,0.589527,-0.185543,-5.366912,-48.613113,-88.288544,-615.565186
1733469107,-1.228375,-4.316147,1.0735,0.496645,-0.383795,-5.641061,-46.214478,-88.694916,-615.772644
1733469107,-1.095347,-3.899855,0.805649,0.420538,-0.487754,-5.941314,-43.541046,-89.127502,-615.779968
1733469107,-0.688782,-2.967463,0.396091,0.363298,-0.43961,-6.213124,-40.429413,-89.344376,-615.182739
1733469107,0.293888,-1.708712,0.080804,0.323993,-0.374605,-6.360345,-37.316467,-89.203262,-614.721924
1733469107,1.393276,-0.372747,0.1031,0.277045,-0.29466,-6.382133,-34.620316,-89.125717,-615.446899
1733469107,2.076371,0.279822,0.261267,0.187061,-0.237571,-6.397398,-31.404617,-88.66391,-615.214539
1733469107,2.872892,0.607678,0.249596,0.082918,-0.178043,-6.441487,-28.71463,-88.057632,-614.447144
1733469107,3.978265,1.365593,0.29748,0.031499,-0.180756,-6.442994,-25.828705,-87.371384,-614.666382
1733469107,5.483919,2.420089,0.525976,-0.015512,-0.249234,-6.319414,-22.839279,-86.272964,-614.733521
1733469107,7.070826,3.390938,0.823605,-0.114635,-0.396933,-6.05442,-20.227432,-85.261795,-614.237122
1733469107,8.189068,4.066701,0.672322,-0.221885,-0.535862,-5.744684,-17.813324,-83.891037,-614.635498
1733469107,9.308806,4.147954,-0.364218,-0.258546,-0.520487,-5.420823,-15.929688,-82.93985,-615.359314
1733469107,10.528651,4.191948,-1.390882,-0.239983,-0.334124,-5.07197,-14.071762,-81.653702,-615.231079
1733469107,11.776779,4.682011,-1.840094,-0.241049,0.022283,-4.696935,-12.447189,-80.27446,-615.406738
1733469107,13.223325,5.540183,-1.621024,-0.319288,0.416988,-4.261896,-11.227798,-79.24794,-615.497864
1733469107,14.659846,6.142025,-1.13126,-0.426839,0.805958,-3.764877,-9.633331,-77.978394,-615.307129
1733469107,16.203957,6.428132,-0.661398,-0.528684,1.111729,-3.219949,-9.142303,-77.055618,-614.902344
1733469107,17.3008,6.55697,-0.044891,-0.62065,1.25173,-2.699439,-8.303574,-76.247345,-614.696533
1733469107,17.865383,6.369923,0.550966,-0.691514,1.206467,-2.242954,-8.145432,-75.397308,-615.134888
1733469107,17.812411,6.164022,0.708684,-0.721977,1.115994,-1.916432,-8.033325,-75.054489,-614.10376
1733469107,17.349732,6.260239,0.403124,-0.700913,1.112027,-1.765714,-7.676224,-74.466232,-614.386169
1733469107,17.58601,6.649895,0.733524,-0.681706,1.017514,-1.682145,-7.34137,-73.960526,-614.183777
1733469107,18.497602,7.064092,1.465251,-0.628027,0.703062,-1.580634,-6.995163,-73.425461,-614.235229
1733469107,19.058294,7.64708,1.560271,-0.485388,0.346531,-1.488077,-6.587387,-72.882751,-614.617004
1733469107,19.689765,7.969549,1.597381,-0.316301,-0.067764,-1.386231,-5.775467,-72.395752,-614.757324
1733469107,20.801273,8.224083,1.808819,-0.147666,-0.577556,-1.155629,-5.387161,-71.972046,-614.89624
1733469107,21.668872,8.535329,1.556381,0.058265,-1.023386,-0.800457,-4.985977,-71.911148,-615.242615
1733469107,22.298547,8.624064,1.370082,0.192316,-1.397788,-0.286673,-5.256958,-71.596786,-615.719604
1733469107,22.355708,8.417564,1.20967,0.242984,-1.602105,0.278841,-4.74826,-71.584808,-615.980652
1733469107,21.922208,8.369231,0.539593,0.2084,-1.603662,0.987181,-4.495743,-71.975006,-615.704773
1733469107,21.265598,8.815002,-0.232986,0.142715,-1.336603,1.71172,-5.263672,-72.711029,-616.875
1733469107,20.036625,8.149414,-0.791733,0.043858,-0.961658,2.348785,-5.958557,-73.438705,-617.023682
1733469107,18.808549,7.95698,-0.730381,-0.09261,-0.588526,2.920057,-6.700073,-74.438889,-617.217896
1733469107,17.546505,7.939921,-0.537498,-0.234131,-0.289669,3.421623,-7.867447,-75.672089,-617.614136
1733469107,16.316335,7.55221,-0.212934,-0.363353,-0.102293,3.853534,-8.890488,-76.835861,-617.926453
1733469107,15.068357,7.188291,-0.096666,-0.47428,0.032588,4.205488,-10.644562,-78.561066,-618.410461
1733469107,13.968521,6.885724,0.013318,-0.555001,0.072511,4.496794,-12.162048,-79.636459,-617.990601
1733469107,13.149853,6.571186,0.245256,-0.583867,-0.043692,4.774691,-13.95163,-80.973022,-618.601501
1733469107,12.321908,6.188263,0.340126,-0.537884,-0.26264,5.004395,-15.933395,-82.25,-619.125122
1733469107,11.326968,5.721843,0.241066,-0.451291,-0.513938,5.169945,-17.78508,-83.6866,-618.769836
1733469108,10.618733,5.39683,0.102053,-0.322375,-0.787838,5.351253,-19.841537,-84.759628,-619.738525
1733469108,9.975591,5.114164,-0.28491,-0.135854,-1.009,5.551154,-22.265152,-85.928314,-619.826172
1733469108,9.305364,4.957045,-0.540491,0.070812,-1.193455,5.797643,-24.426987,-86.656448,-620.10791
1733469108,8.738836,4.932504,-0.667533,0.281285,-1.330957,6.124337,-27.201645,-87.548035,-620.148804
1733469108,8.192509,4.92592,-0.817021,0.487736,-1.404084,6.537579,-29.924026,-88.388702,-619.784912
1733469108,7.546823,4.968268,-0.659752,0.628384,-1.413671,7.060405,-33.169861,-88.564972,-619.598145
1733469108,6.584653,5.526865,-0.46238,0.662103,-1.317041,7.67823,-36.689484,-89.17485,-619.222595
1733469108,5.493047,6.4413,-0.2891,0.651541,-1.17413,8.402251,-40.364227,-88.921463,-618.835571
1733469108,4.172196,7.340473,0.011073,0.607643,-1.051956,9.215367,-44.717667,-88.484451,-618.7099
1733469108,2.104952,8.124125,0.441431,0.509275,-0.909322,9.995295,-49.306793,-87.331207,-617.879822
1733469108,-1.265635,8.708011,0.796222,0.32317,-0.559861,10.695176,-54.422623,-85.572815,-618.63562
1733469108,-5.979818,7.976582,1.314716,-0.093987,-0.041146,10.998386,-59.429367,-83.233002,-618.755554
1733469108,-10.45069,5.344606,1.908328,-0.811086,0.400961,10.771328,-63.195709,-80.548599,-619.593628
1733469108,-13.425486,3.985897,1.029656,-1.573414,0.844169,10.355399,-67.04071,-77.65213,-620.264282
1733469108,-16.597055,4.176984,-0.994492,-1.998459,1.048464,9.870909,-70.55397,-74.631714,-621.417542
1733469108,-20.53836,2.740014,-2.436699,-1.882987,0.548186,9.06135,-73.871597,-71.43425,-621.997437
1733469108,-23.756616,-0.484377,-3.415329,-1.210669,-0.600459,7.868537,-75.576477,-68.475769,-621.393311
1733469108,-25.48493,-3.284845,-4.285771,-0.293487,-1.916155,6.553781,-76.88002,-66.08168,-620.848389
1733469108,-27.932552,-5.433192,-4.677671,0.457584,-2.876511,5.154779,-77.671967,-64.20517,-619.225037
1733469108,-30.39424,-8.281095,-4.926968,0.860349,-3.211668,3.662836,-77.950119,-62.736115,-616.716736
1733469108,-30.305056,-10.514735,-5.182399,0.972248,-3.01549,2.370044,-78.199127,-61.852295,-615.648682
1733469108,-28.541727,-10.725575,-4.902128,0.934191,-2.603848,1.454772,-78.045013,-61.310745,-614.596252
1733469108,-26.88449,-9.927258,-4.386028,0.827669,-2.035876,0.814672,-78.30806,-61.281036,-613.647583
1733469108,-25.725547,-9.609577,-4.087501,0.650216,-1.291138,0.308274,-78.344727,-61.099289,-613.465332
1733469108,-24.873511,-10.325144,-4.010437,0.398494,-0.34493,-0.181898,-78.467865,-61.353516,-613.417786
1733469108,-23.644537,-11.567286,-3.753061,0.07049,0.630713,-0.652486,-78.566162,-61.75032,-613.964905
1733469108,-22.035634,-12.152219,-3.021782,-0.321106,1.429397,-1.064458,-78.670258,-62.701797,-615.37793
1733469108,-20.236541,-12.173318,-2.362329,-0.6637,1.931881,-1.442573,-78.281754,-63.46582,-616.34906
1733469108,-18.551621,-11.957391,-2.102408,-0.863006,2.092989,-1.814772,-78.202713,-64.352127,-617.315186
1733469108,-17.185729,-11.221174,-2.155829,-0.895016,1.928461,-2.184682,-77.770126,-65.387726,-617.701416
1733469108,-16.020501,-10.480169,-2.631677,-0.761097,1.579007,-2.542042,-77.134888,-66.660706,-619.102722
1733469108,-15.0094,-9.909152,-3.380164,-0.504986,1.175443,-2.864722,-76.164581,-67.870132,-619.671021
1733469108,-14.007726,-9.396793,-3.940108,-0.207793,0.787017,-3.148206,-76.164581,-67.870132,-619.671021
1733469108,-13.362189,-8.913613,-4.2322,0.057316,0.548009,-3.419971,-74.563477,-70.609375,-619.947754
1733469108,-13.009493,-8.521413,-4.307917,0.234403,0.508031,-3.703297,-73.170181,-72.048874,-620.120361
1733469108,-12.499678,-8.00232,-4.007744,0.311514,0.615299,-3.983851,-71.775757,-73.600174,-620.016296
1733469108,-11.664251,-7.500585,-3.626168,0.326009,0.823605,-4.213856,-70.065872,-75.164017,-620.421692
1733469108,-10.613646,-6.884228,-3.075651,0.316016,1.036073,-4.38162,-68.42186,-76.879623,-621.168335
1733469108,-9.596559,-6.639869,-2.557606,0.296189,1.213434,-4.554812,-67.015228,-78.155746,-621.047058
1733469108,-8.693047,-6.534674,-2.214337,0.280004,1.384726,-4.751291,-65.1745,-79.91835,-620.664612
1733469108,-8.044069,-5.910536,-1.819294,0.267177,1.512855,-4.962429,-63.205597,-81.199265,-621.566833
1733469108,-7.260117,-5.265149,-1.528398,0.294675,1.615375,-5.195587,-60.884628,-82.612,-621.75824
1733469108,-6.25141,-4.353108,-1.136348,0.359788,1.618027,-5.392789,-58.706024,-83.883286,-622.055054
1733469108,-5.241805,-3.230676,-0.645387,0.430352,1.524453,-5.544394,-56.176147,-84.99884,-622.002258
1733469108,-4.350264,-2.550723,-0.306757,0.510332,1.385662,-5.688052,-56.176147,-84.99884,-622.002258
1733469108,-3.613299,-2.079065,-0.073921,0.575249,1.215853,-5.849071,-53.62915,-86.226486,-622.158325
1733469108,-3.030461,-1.810914,0.010175,0.63285,1.034415,-6.033277,-51.272003,-86.974487,-621.771362
1733469108,-2.466327,-1.489343,-0.054169,0.697699,0.852041,-6.238219,-48.29155,-87.758469,-621.786743
1733469108,-1.906233,-0.90845,-0.196474,0.781164,0.686003,-6.443819,-45.088776,-88.190033,-621.593201
1733469108,-1.175553,-0.11133,-0.393846,0.87985,0.588727,-6.614631,-42.247757,-88.660492,-620.942688
1733469108,-0.22311,0.703147,-0.502184,0.982276,0.506752,-6.748011,-39.266373,-88.850647,-620.342896
1733469108,1.195006,1.425897,-0.287903,1.101508,0.32528,-6.800998,-35.626144,-88.918472,-619.986755
1733469108,2.946664,2.146402,0.111779,1.203106,0.082704,-6.719871,-32.333191,-88.762711,-619.817627
1733469108,4.414609,2.831892,0.597653,1.196413,-0.146389,-6.547729,-29.364227,-88.198776,-619.075989
1733469108,5.494543,3.136105,0.90441,1.075657,-0.324185,-6.349022,-27.024933,-87.368378,-618.102783
1733469108,6.40015,3.062932,0.713622,0.897799,-0.382727,-6.13658,-24.269608,-86.539902,-617.745178
1733469108,7.518841,3.087323,0.052972,0.767844,-0.302924,-5.890442,-21.750671,-85.750046,-617.195557
1733469108,9.454702,3.596839,-0.146046,0.655037,-0.21773,-5.520713,-19.380859,-84.595856,-617.347656
1733469108,11.445331,4.323779,0.217573,0.463103,-0.153048,-5.039673,-17.696915,-83.355225,-616.648193
1733469108,12.759598,4.770896,0.14874,0.198969,0.036417,-4.511569,-15.760025,-82.340881,-616.388611
1733469108,13.732692,4.844817,-0.039205,-0.075297,0.267784,-3.959407,-14.29071,-81.555984,-616.608398
1733469108,14.097209,4.596418,-0.155174,-0.325846,0.497459,-3.45523,-12.981674,-80.507278,-616.488159
1733469108,13.862577,4.091541,-0.843058,-0.520947,0.861295,-3.108836,-12.476837,-79.632172,-616.910461
1733469108,13.580959,3.978265,-1.513584,-0.620189,1.301011,-2.916075,-11.89505,-79.115982,-616.911011
1733469108,14.119206,4.33575,-1.236306,-0.673354,1.615165,-2.78237,-11.232773,-78.323456,-616.894653
1733469108,15.254506,4.833594,-0.703297,-0.683849,1.802455,-2.690633,-10.676132,-77.452576,-616.339844
1733469108,16.563237,5.551106,-0.033369,-0.613716,1.778541,-2.622898,-10.169907,-76.545807,-616.14563
1733469108,18.450167,6.306028,1.183633,-0.470108,1.349041,-2.489776,-9.529709,-75.844345,-615.865234
1733469108,20.562152,6.849811,2.488174,-0.269136,0.537716,-2.254026,-8.993759,-75.233231,-616.068848
1733469108,21.9671,7.358579,2.79538,-0.008128,-0.358315,-1.995289,-8.100525,-74.628723,-615.954529
1733469108,22.968774,8.058434,2.4361,0.278274,-1.188414,-1.62782,-7.603409,-73.772873,-616.114746
1733469108,23.480834,8.340052,1.518373,0.546266,-1.701888,-1.189059,-6.997696,-73.264359,-616.669067
1733469108,23.657855,8.302942,0.482581,0.731386,-1.867971,-0.652713,-6.453156,-72.938339,-616.738403
1733469108,23.510761,8.317905,-0.049081,0.824058,-1.753347,-0.069743,-6.159943,-73.048615,-616.901855
1733469108,22.894254,8.038682,-0.143353,0.774228,-1.458851,0.554926,-6.562302,-73.159119,-617.14032
1733469108,22.537368,8.626009,0.497994,0.585124,-1.179753,1.269378,-6.545242,-73.591919,-617.56073
1733469108,21.432594,7.924658,0.638354,0.335402,-0.862268,1.895229,-7.153229,-74.139236,-617.547913
1733469108,19.899856,7.305457,0.370652,0.055477,-0.454161,2.413287,-8.030365,-75.146118,-617.978882
1733469108,18.399889,7.139958,0.155473,-0.238658,-0.02532,2.845829,-9.000153,-76.251663,-617.854614
1733469108,17.056143,6.827216,0.036811,-0.482854,0.321287,3.197117,-9.981339,-77.1987,-617.311035
1733469108,15.902287,6.303783,-0.149937,-0.644407,0.558778,3.493131,-11.250092,-78.253204,-618.573425
1733469108,14.908843,5.922956,-0.327407,-0.709872,0.68846,3.772723,-12.138077,-79.381119,-617.869507
1733469108,13.908815,5.647922,-0.507571,-0.699683,0.747765,4.025763,-13.739426,-80.419876,-618.319885
1733469108,12.87856,5.219809,-0.649427,-0.625099,0.767643,4.2458,-15.125076,-81.43129,-618.43988
1733469108,11.731289,4.87654,-0.776918,-0.514964,0.796447,4.42104,-16.755875,-82.56749,-618.198547
1733469108,10.717644,4.535366,-0.645387,-0.41333,0.812183,4.551345,-18.568008,-83.663528,-618.274658
1733469108,9.744999,4.216937,-0.382474,-0.312606,0.799456,4.618687,-20.644516,-84.662537,-618.183899
1733469108,9.038411,3.964798,0.05387,-0.208228,0.676957,4.658187,-22.218216,-85.660294,-618.061707
1733469108,8.823531,3.750966,0.843358,-0.104121,0.325557,4.751767,-24.440872,-86.451324,-618.312866
1733469108,8.493131,3.661483,1.70961,0.040783,-0.230054,4.870407,-26.220718,-87.31575,-617.686157
1733469108,8.028057,3.580529,2.330755,0.222031,-0.957244,5.035915,-28.460999,-88.222137,-618.521362
1733469108,7.604733,3.490896,2.769343,0.443646,-1.757282,5.256344,-30.58168,-88.528427,-618.534546
1733469108,6.842179,3.581127,2.400786,0.68244,-2.342153,5.502707,-33.379456,-88.823975,-617.86908
1733469108,6.262034,3.87741,1.964891,0.919299,-2.742731,5.861141,-35.746109,-89.266113,-617.603516
1733469108,5.645228,4.243124,1.719935,1.137737,-2.965332,6.3532,-38.108032,-89.217392,-617.082031
1733469108,4.66989,4.492719,1.472883,1.309043,-2.958692,6.931536,-41.145462,-89.111237,-616.297302
1733469108,3.469049,4.926968,1.544709,1.398438,-2.784009,7.611031,-44.539139,-88.554703,-615.326477
1733469108,1.842189,5.858013,1.668459,1.353764,-2.420059,8.391143,-48.310165,-87.547638,-614.436401
1733469108,-0.808043,6.566996,1.951723,1.136398,-1.851758,9.138798,-52.483398,-86.23912,-613.753479
1733469108,-4.429123,5.790826,2.433407,0.712261,-1.047212,9.70451,-56.753601,-84.379501,-613.05719
1733469109,-8.181586,3.866636,3.205088,-0.015148,-0.138271,9.914035,-60.635315,-82.095245,-614.046143
1733469109,-10.709563,2.67148,4.135834,-0.994589,0.728687,9.950193,-64.461655,-79.149002,-614.96582
1733469109,-13.051541,3.29098,4.208558,-2.035252,1.497643,10.020792,-68.35498,-76.029709,-616.317871
1733469109,-16.951995,2.708291,3.846285,-3.046638,2.042029,9.781425,-71.642578,-72.635941,-618.349915
1733469109,-21.60782,0.075567,3.354426,-3.967628,2.187731,9.028482,-74.334137,-69.379974,-620.476624
1733469109,-26.611551,-2.848352,2.590077,-4.644746,1.734073,7.762153,-76.65979,-66.489105,-622.66394
1733469109,-30.940118,-5.521328,0.871938,-4.837309,0.535932,6.031235,-77.432739,-64.102814,-623.49823
1733469109,-33.378014,-7.73776,-3.138499,-4.235198,-1.067553,4.18449,-78.069153,-62.409821,-623.070923
1733469109,-33.877205,-9.534609,-8.844181,-2.882375,-2.511579,2.500465,-78.236908,-61.29509,-622.177612
1733469109,-33.632249,-10.518177,-13.404237,-1.330537,-3.456409,1.060266,-77.954346,-60.855637,-619.982544
1733469109,-32.826001,-11.046846,-15.37272,-0.081439,-3.677605,-0.13512,-77.421082,-61.058334,-618.878418
1733469109,-27.678168,-10.432883,-14.15871,1.116505,-2.218953,-1.525482,-77.374115,-61.642212,-617.420837
1733469109,-27.678168,-10.432883,-14.15871,1.116505,-2.218953,-1.525482,-77.050446,-62.266052,-616.481445
1733469109,-20.899286,-9.018658,-9.922918,1.098674,-1.041356,-1.734723,-77.168335,-63.150909,-616.016602
1733469109,-18.227805,-9.438541,-8.404097,0.567778,1.213653,-1.794212,-76.980667,-64.106995,-616.114929
1733469109,-16.336236,-9.830592,-7.098209,0.36291,1.913341,-1.828047,-76.832718,-65.113007,-617.194702
1733469109,-15.337106,-9.940127,-5.832275,0.324669,2.133404,-1.932507,-76.819443,-65.913956,-618.334473
1733469109,-15.214852,-9.846154,-5.010765,0.415999,2.026579,-2.152531,-76.420609,-66.829086,-619.217896
1733469109,-15.436166,-9.557354,-4.269909,0.57235,1.70962,-2.456886,-75.949463,-67.875183,-619.894165
1733469109,-15.565453,-9.339182,-3.709516,0.714056,1.360697,-2.823494,-74.983658,-69.03212,-619.607361
1733469109,-15.61199,-8.900445,-3.418471,0.79514,1.137306,-3.21777,-74.01326,-70.277054,-620.447937
1733469109,-15.45951,-8.197148,-3.173215,0.800675,1.112082,-3.603446,-73.123169,-71.530289,-620.427246
1733469109,-14.738705,-7.980473,-2.885163,0.723185,1.248129,-3.967428,-71.842789,-73.131805,-620.686096
1733469109,-13.475016,-8.065916,-2.314445,0.54957,1.335245,-4.303686,-70.469299,-74.594254,-620.761108
1733469109,-12.30889,-7.282114,-1.776647,0.351153,1.313416,-4.583301,-68.92543,-76.230087,-621.353638
1733469109,-11.300333,-6.22268,-2.040309,0.239708,1.335342,-4.840611,-67.293793,-77.897369,-621.894165
1733469109,-10.108768,-5.630414,-2.701408,0.26129,1.421036,-5.062984,-65.508362,-79.348068,-622.098206
1733469109,-9.08839,-4.71972,-2.951302,0.395627,1.525043,-5.231466,-63.122894,-80.91069,-622.470703
1733469109,-8.279,-3.49748,-2.760215,0.579664,1.650099,-5.387046,-60.927933,-82.204788,-622.817749
1733469109,-7.641095,-2.664298,-2.239925,0.768053,1.753587,-5.572681,-58.663345,-83.625977,-622.06012
1733469109,-6.863428,-2.09777,-1.456124,0.91518,1.782064,-5.784971,-56.218109,-84.829117,-622.420593
1733469109,-5.696404,-2.011429,-0.670526,0.990145,1.66517,-6.003861,-53.674179,-86.065842,-622.392456
1733469109,-4.664952,-1.676989,0.033519,0.994115,1.457152,-6.227226,-51.072647,-87.087784,-622.205566
1733469109,-4.016273,-0.732925,0.412102,0.954593,1.211048,-6.442505,-47.884003,-87.973694,-621.892822
1733469109,-3.420267,0.285209,0.47061,0.903514,0.9774,-6.674677,-44.81543,-88.463913,-621.432861
1733469109,-2.788946,1.034594,0.220865,0.891441,0.743744,-6.897564,-41.302597,-88.812195,-621.126709
1733469109,-2.119467,2.260725,-0.171036,0.948374,0.527848,-7.041946,-38.281708,-89.074234,-620.592041
1733469109,-1.627309,3.106626,-0.609025,1.066939,0.38345,-7.220381,-35.116638,-88.889313,-619.972534
1733469109,-1.183035,3.142539,-1.022174,1.185,0.321909,-7.481665,-31.775772,-88.650787,-619.740845
1733469109,-0.433949,3.456629,-1.25127,1.239756,0.339512,-7.731848,-28.191376,-87.866943,-617.878235
1733469109,0.499939,4.645799,-1.377863,1.227168,0.504662,-7.903485,-24.264496,-87.010071,-618.296936
1733469109,1.711555,6.472275,-1.091307,1.18239,0.687763,-7.904776,-20.732651,-85.572708,-617.334045
1733469109,3.927837,8.24174,-0.52852,1.11543,0.787327,-7.716797,-17.56572,-84.299911,-616.496033
1733469109,6.7509,9.277232,0.311695,1.014922,0.68473,-7.336472,-14.556015,-82.344406,-615.894226
1733469109,9.424775,9.62514,1.632546,0.885012,0.20781,-6.814692,-12.452576,-80.836731,-615.276367
1733469109,11.350312,9.396942,2.011578,0.771338,-0.366582,-6.316433,-10.535019,-79.188034,-615.355469
1733469109,12.548011,8.973767,0.863259,0.696739,-0.619782,-5.869997,-8.459229,-77.202713,-614.808594
1733469109,13.462297,9.168146,-0.465672,0.612337,-0.446847,-5.416146,-6.873138,-75.233521,-615.143799
1733469109,14.13821,9.715521,-1.063923,0.451247,0.056431,-4.972597,-5.485565,-73.467575,-614.882812
1733469109,14.986206,10.606613,-1.237353,0.229507,0.822921,-4.592391,-4.548019,-71.952988,-613.696411
1733469109,16.290747,11.744008,-0.608576,0.005648,1.535185,-4.267807,-3.942337,-70.597214,-614.20343
1733469109,18.362928,12.178556,0.877026,-0.152934,1.839212,-3.92321,-2.841522,-69.226715,-613.493347
1733469109,21.172524,13.365481,2.686444,-0.228158,1.559304,-3.365598,-2.41568,-68.127136,-612.836426
1733469109,23.066337,13.907618,3.837157,-0.209056,0.943511,-2.79718,-2.049637,-67.028778,-612.634033
1733469109,23.662194,13.742269,3.838953,-0.11987,0.310241,-2.284266,-1.432266,-66.106735,-612.296936
1733469109,23.549966,13.936947,3.266439,-0.023632,-0.150552,-1.831952,-1.223907,-65.240585,-612.463562
1733469109,23.297228,13.896994,3.103933,0.035946,-0.558457,-1.399998,-0.745148,-64.899414,-612.393188
1733469109,22.906375,13.536816,2.743755,0.114162,-0.897067,-0.954318,-0.290375,-64.308701,-613.047668
1733469109,22.44983,13.053337,1.811812,0.226669,-1.053643,-0.480979,0.137146,-64.117203,-612.978943
1733469109,22.252907,12.614899,1.169717,0.301332,-1.062249,0.084466,0.322144,-64.158707,-612.669922
1733469109,22.039973,12.211476,1.162834,0.303626,-1.011602,0.714883,0.198334,-64.173462,-613.762146
1733469109,21.45474,11.672182,1.365593,0.239944,-0.957198,1.360634,0.101715,-64.701248,-614.44458
1733469109,20.482096,11.164462,1.546654,0.126361,-0.88698,1.98401,-0.148132,-65.568985,-614.402222
1733469109,19.204939,10.885986,1.718438,-0.041355,-0.779241,2.545185,-0.613083,-66.535461,-614.879639
1733469109,17.93676,10.618135,1.994969,-0.284099,-0.699608,3.04593,-1.035416,-67.856323,-615.153687
1733469109,16.768091,10.361207,2.012775,-0.527499,-0.649105,3.50027,-2.07489,-69.196609,-615.639587
1733469109,15.672893,10.130615,1.576731,-0.725857,-0.594565,3.921622,-3.005142,-70.752274,-615.91394
1733469109,14.708329,9.917382,1.166425,-0.868616,-0.58028,4.326315,-4.159439,-72.070068,-616.297913
1733469109,13.829807,9.673323,0.678906,-0.941132,-0.576492,4.697359,-5.689926,-73.890518,-617.010864
1733469109,13.234698,9.334843,0.137068,-0.954423,-0.59641,5.069096,-7.241318,-75.64035,-616.990967
1733469109,12.681937,9.066393,-0.384718,-0.907182,-0.60992,5.438091,-8.744537,-77.386276,-618.212952
1733469109,12.146683,8.905233,-0.526575,-0.830735,-0.721621,5.802802,-10.936691,-79.158203,-619.003235
1733469109,11.576564,8.798242,-0.587328,-0.68617,-0.922974,6.169889,-13.034348,-80.816086,-619.702515
1733469109,10.787674,8.614338,-0.838719,-0.462614,-1.140597,6.498214,-15.820221,-82.498276,-620.064636
1733469109,10.096049,8.425495,-0.856825,-0.187791,-1.440892,6.813792,-18.525528,-84.16684,-620.284546
1733469109,9.585486,8.263587,-0.706888,0.154027,-1.838278,7.171777,-21.440186,-85.452072,-620.724487
1733469109,8.739435,8.305336,-0.792331,0.528247,-2.15584,7.582769,-24.417236,-86.897491,-620.916809
1733469109,7.832331,8.483105,-0.898873,0.870789,-2.319106,8.085769,-27.95224,-87.99295,-620.797913
1733469109,7.020547,8.934562,-0.712574,1.133012,-2.332723,8.723515,-31.74733,-88.589508,-620.159729
1733469109,5.506813,10.004022,-0.298527,1.284084,-2.159626,9.485025,-35.762436,-89.070343,-619.045715
1733469109,2.784756,11.079916,0.642694,1.262614,-1.763248,10.303236,-40.791595,-88.57869,-619.251831
1733469109,-1.042376,11.215039,2.169596,0.893914,-1.257621,10.932196,-45.906998,-88.0746,-618.977539
1733469109,-4.532673,10.276961,3.843591,0.101818,-0.880902,11.267651,-50.80658,-86.617126,-618.551392
1733469109,-7.024139,10.224737,4.017321,-0.722994,-0.574227,11.571461,-55.320068,-84.471054,-618.774048
1733469109,-9.711331,11.954399,2.014272,-1.219089,-0.259897,11.996299,-60.172806,-81.542664,-618.98999
1733469109,-13.638121,13.311612,-0.641197,-1.380173,0.068299,12.340793,-65.127701,-77.957703,-619.93158
1733469109,-18.728792,12.245743,-2.699612,-1.281762,0.374938,12.27114,-69.297913,-73.868729,-620.783752
1733469109,-26.028114,8.517223,-3.545364,-1.124247,0.450126,11.444054,-74.132095,-69.944138,-621.456421
1733469109,-36.843023,0.501136,-3.220949,-1.133643,0.260586,9.181396,-76.286133,-66.537109,-621.78772
1733469109,-44.448055,-8.803031,-2.489521,-1.31906,-0.413418,6.10778,-77.375671,-64.5793,-621.364014
1733469109,-44.912081,-12.379669,-3.381211,-1.247431,-1.58076,3.215176,-77.375671,-64.5793,-621.364014
1733469109,-41.273194,-12.970737,-6.830358,-0.50626,-2.758175,0.936868,-77.616028,-63.56665,-621.079346
1733469109,-35.170074,-11.805808,-9.897779,0.598916,-3.601339,-0.485237,-77.132828,-63.371948,-619.343201
1733469109,-28.613703,-10.205434,-10.531195,1.531178,-3.975151,-1.100863,-76.230209,-63.487289,-617.151672
1733469109,-23.810336,-8.610597,-9.900024,2.072401,-3.615231,-1.108184,-75.640076,-63.898499,-614.978088
1733469109,-21.089625,-7.744644,-8.896554,2.149327,-2.453234,-0.815287,-75.511276,-64.166534,-612.857361
1733469109,-20.053683,-8.703073,-7.317728,1.779369,-0.822133,-0.523365,-75.244507,-64.60379,-611.872131
1733469109,-20.34398,-10.519374,-5.64448,1.159378,0.855902,-0.469765,-75.776413,-64.923965,-612.096191
1733469109,-21.105337,-12.309788,-4.089596,0.534733,2.175356,-0.740379,-76.416733,-65.125168,-612.626343
1733469109,-21.545271,-13.070246,-2.75827,0.078646,2.863843,-1.242853,-76.500137,-65.594559,-614.018311
1733469110,-21.210083,-12.943802,-1.842637,-0.125872,2.891994,-1.90421,-76.561874,-66.320038,-614.762634
1733469110,-20.328717,-12.084434,-1.503708,-0.078955,2.422129,-2.577119,-76.229507,-67.469543,-616.473633
1733469110,-19.306992,-10.779893,-1.568352,0.111872,1.751617,-3.216826,-75.560608,-68.657623,-617.303101
1733469110,-17.953071,-9.565434,-2.367716,0.380545,1.181228,-3.75491,-74.288162,-69.97261,-617.802917
1733469110,-16.181661,-8.620024,-3.455132,0.675142,0.884582,-4.168386,-73.08136,-71.454056,-618.371948
1733469110,-14.496891,-7.908946,-3.967342,0.924952,0.865263,-4.462142,-71.695282,-73.02182,-617.80896
1733469110,-13.148656,-7.01531,-3.798999,1.057238,1.068921,-4.682962,-70.254349,-74.628448,-618.200562
1733469110,-12.035203,-6.110152,-3.041983,1.056675,1.367089,-4.88468,-68.872055,-76.371201,-617.922791
1733469110,-11.043554,-5.297171,-2.116923,0.98042,1.685764,-5.083711,-67.180634,-77.960419,-618.24353
1733469110,-10.176105,-4.646547,-1.394024,0.887772,1.985891,-5.331961,-65.326721,-79.636261,-618.354248
1733469110,-9.295338,-4.042161,-0.717213,0.817129,2.160772,-5.647406,-63.109985,-81.247131,-618.754395
1733469110,-8.508394,-3.166182,0.02888,0.792676,2.147206,-5.981045,-61.059082,-82.694321,-618.962646
1733469110,-7.653515,-2.073229,0.837821,0.816206,1.93611,-6.295461,-58.385559,-84.176605,-619.197632
1733469110,-6.46614,-0.901716,1.288829,0.849053,1.629033,-6.559351,-55.585312,-85.49678,-619.008728
1733469110,-5.168483,-0.063147,1.250073,0.899998,1.293227,-6.814539,-52.813705,-86.577698,-618.877441
1733469110,-3.904045,0.633117,0.998232,1.004726,0.937821,-7.043657,-49.708481,-87.528015,-618.550842
1733469110,-2.735525,1.483657,0.701202,1.156847,0.61245,-7.238175,-46.363525,-88.228104,-617.953003
1733469110,-1.553987,2.176928,0.393547,1.337704,0.323516,-7.405923,-42.924652,-88.694275,-617.285828
1733469110,-0.41719,3.095104,0.198419,1.527704,0.121023,-7.49925,-39.460007,-88.805161,-616.841492
1733469110,0.902165,4.316596,0.274136,1.679817,-0.049062,-7.52206,-36.108475,-88.680511,-615.569763
1733469110,2.421436,5.201253,0.980874,1.711887,-0.261917,-7.463765,-32.667267,-88.577087,-614.837158
1733469110,4.03423,5.712715,1.745223,1.61041,-0.512794,-7.329079,-29.152145,-87.696976,-614.198853
1733469110,6.063316,6.118382,2.205509,1.391024,-0.716614,-7.097744,-26.28746,-86.831604,-613.656738
1733469110,8.380304,6.508637,2.78311,1.079291,-0.898306,-6.78587,-23.474411,-85.888458,-612.755615
1733469110,10.705673,6.897545,3.192369,0.649727,-0.959894,-6.3527,-20.869049,-84.779892,-612.664062
1733469110,12.579136,7.208642,3.039289,0.159104,-0.813242,-5.83583,-18.196228,-83.454544,-613.023804
1733469110,14.03481,7.460482,2.001852,-0.288764,-0.329843,-5.286165,-16.182999,-82.289444,-613.310852
1733469110,15.276054,7.613711,1.004517,-0.652931,0.292591,-4.716218,-14.76651,-80.910019,-613.57074
1733469110,16.454899,7.480384,0.449362,-0.913232,0.903465,-4.173064,-13.417694,-80.003891,-614.217041
1733469110,17.80493,7.498789,-0.109086,-1.024062,1.489055,-3.647279,-12.556931,-79.237686,-613.581665
1733469110,19.334376,7.816021,-0.154426,-0.988438,1.860397,-3.104976,-11.737915,-78.211472,-613.434875
1733469110,20.635923,7.792677,0.868048,-0.85733,1.826694,-2.617713,-11.791824,-77.49144,-613.551941
1733469110,21.329194,7.694066,2.258031,-0.686515,1.458453,-2.300773,-11.386368,-77.021423,-613.302124
1733469110,21.785439,7.867347,3.297564,-0.503666,0.851225,-2.06719,-10.846054,-76.42981,-613.016785
1733469110,22.155793,8.062923,4.058172,-0.332341,0.114136,-1.893051,-10.409241,-75.884781,-613.037109
1733469110,22.192304,8.135497,4.432415,-0.143955,-0.683476,-1.779816,-9.633606,-75.215485,-613.749329
1733469110,22.252608,8.376264,4.399645,-0.000495,-1.354906,-1.650474,-9.135666,-74.408234,-613.76593
1733469110,22.791154,8.686014,3.978116,0.039856,-1.81992,-1.37557,-7.982864,-74.037033,-614.241333
1733469110,23.173478,8.967632,3.445406,-0.013198,-2.062197,-0.921312,-7.471771,-73.620682,-614.603516
1733469110,22.980595,8.996662,2.567332,-0.159809,-2.022731,-0.350324,-7.410294,-73.386566,-614.825928
1733469110,22.272809,8.407089,1.508497,-0.348034,-1.763392,0.249974,-6.510941,-73.218155,-615.928528
1733469110,21.73965,8.907777,0.817171,-0.542088,-1.444945,0.999077,-6.834381,-73.574615,-616.274536
1733469110,20.818332,8.727613,-0.020201,-0.684728,-1.017695,1.68478,-7.53302,-74.271347,-617.20282
1733469110,19.594745,7.98556,-0.468515,-0.798646,-0.617422,2.286639,-7.968414,-75.063293,-617.879333
1733469110,18.324322,8.10138,-0.415693,-0.87123,-0.325537,2.823035,-8.967819,-75.785873,-618.361328
1733469110,17.165229,8.146421,0.021099,-0.87317,-0.277181,3.303708,-9.802444,-77.03183,-618.742432
1733469110,16.301072,7.937227,0.808043,-0.824356,-0.523335,3.733855,-11.217514,-78.103561,-619.406006
1733469110,15.533131,7.849241,1.447145,-0.733794,-0.980808,4.153055,-12.415115,-79.350494,-619.470459
1733469110,14.611065,7.72145,1.382801,-0.593561,-1.465987,4.550751,-14.020813,-80.644241,-620.42572
1733469110,13.542802,7.4735,1.058087,-0.424424,-1.887426,4.933005,-15.860413,-81.821167,-620.505676
1733469110,12.344953,7.245303,0.376488,-0.245604,-2.141979,5.304748,-17.796082,-82.868332,-621.621094
1733469110,11.126603,6.978499,-0.52014,-0.044519,-2.164809,5.67034,-20.243423,-84.044342,-622.319641
1733469110,10.105027,6.835895,-0.969652,0.147544,-2.070598,6.048004,-22.851746,-85.490891,-622.066467
1733469110,9.279926,6.67264,-0.811934,0.304983,-1.974737,6.451556,-25.331818,-86.534058,-622.586609
1733469110,8.664466,6.622362,-0.361225,0.425188,-1.955819,6.911503,-28.335495,-87.277237,-622.343384
1733469110,8.035539,6.824373,0.181062,0.511718,-2.010689,7.409916,-31.776093,-88.250412,-622.503418
1733469110,7.075764,7.202806,0.588076,0.584455,-2.083778,7.930421,-35.25676,-88.773056,-622.724243
1733469110,5.90066,7.679402,0.744297,0.642262,-2.130561,8.501793,-39.27063,-88.689423,-621.708374
1733469110,4.64924,8.267029,0.653617,0.695383,-2.042109,9.146601,-43.490799,-88.389481,-621.213684
1733469110,3.134908,9.003395,0.452654,0.715679,-1.781628,9.837857,-47.912491,-87.69223,-620.121582
1733469110,1.660379,9.835829,0.470012,0.666631,-1.379994,10.560746,-52.719925,-86.171356,-620.379028
1733469110,-0.351349,10.824784,0.96202,0.507971,-0.927623,11.265824,-57.235947,-84.088257,-619.94281
1733469110,-3.267936,12.166136,1.540369,0.213835,-0.416038,11.891602,-62.015793,-81.213654,-620.005371
1733469110,-6.537966,13.443742,2.154781,-0.222643,-0.020982,12.401079,-66.501053,-77.498459,-620.000183
1733469110,-10.913519,14.625579,2.290204,-0.702517,0.357297,12.772099,-70.298477,-73.124054,-620.61969
1733469110,-17.435025,14.72434,2.336142,-1.248117,0.560154,12.696586,-74.940048,-68.339172,-621.579407
1733469110,-25.976789,11.753435,3.489848,-1.896846,-0.142496,11.660809,-78.513748,-63.584457,-621.95929
1733469110,-33.926137,5.141249,2.371008,-2.255948,-1.446671,9.663205,-80.367676,-59.384995,-621.634583
1733469110,-39.743897,-2.2917,-3.235464,-1.858194,-2.500246,7.147227,-80.951553,-56.320343,-620.74231
1733469110,-43.813591,-7.529465,-9.847501,-0.769795,-2.861916,4.551484,-81.106049,-54.422775,-618.910278
1733469110,-44.387451,-9.606734,-12.583625,0.313212,-2.783971,2.197681,-80.536148,-53.446442,-617.96167
1733469110,-40.474278,-8.161085,-10.504859,0.964645,-2.858847,0.569434,-80.010437,-52.993942,-616.063904
1733469110,-34.831594,-5.05805,-7.823204,1.274355,-2.784842,-0.21861,-79.78598,-53.211517,-614.24707
1733469110,-30.124444,-3.47249,-6.943634,1.344581,-2.20492,-0.38262,-79.479736,-53.339798,-613.128113
1733469110,-27.247212,-4.070741,-6.403442,1.144685,-1.148289,-0.289191,-79.780869,-53.318695,-613.206543
1733469110,-26.135405,-6.037728,-5.825392,0.711461,0.13973,-0.260661,-80.435257,-53.660721,-613.692993
1733469110,-25.98442,-8.418312,-5.366304,0.202247,1.342566,-0.483386,-80.982742,-54.156906,-614.796082
1733469110,-25.582793,-10.593445,-5.235371,-0.18852,2.205635,-0.94819,-81.076874,-54.844147,-616.1474
1733469110,-24.574834,-11.641357,-5.098901,-0.363009,2.574188,-1.561771,-81.293747,-55.883957,-617.923157
1733469110,-23.212234,-11.291803,-4.568735,-0.353079,2.428934,-2.22933,-80.853088,-57.259888,-617.952881
1733469110,-21.381418,-10.089315,-4.085107,-0.200976,1.918996,-2.825368,-80.592972,-58.467361,-619.155518
1733469110,-19.29936,-8.610148,-4.20362,0.05411,1.329709,-3.269088,-79.96199,-60.018982,-619.569702
1733469110,-17.378163,-7.36651,-4.896142,0.336799,0.91791,-3.575616,-79.057083,-61.803436,-620.05365
1733469110,-15.873707,-6.416311,-5.44217,0.583845,0.761057,-3.76711,-78.210022,-63.367828,-620.284302
1733469110,-14.786739,-5.458032,-5.566369,0.749692,0.848045,-3.88142,-77.295685,-65.130676,-620.238098
1733469110,-13.854646,-5.196166,-5.467309,0.85858,1.115407,-3.988164,-76.232513,-66.745575,-620.448547
1733469110,-13.153894,-5.107431,-5.081244,0.914436,1.452488,-4.108737,-75.371735,-68.549042,-620.814758
1733469110,-12.652009,-4.92592,-4.297742,0.939187,1.733713,-4.292555,-74.056519,-70.532532,-621.665466
1733469110,-12.105981,-4.891803,-3.433435,0.954194,1.899307,-4.564632,-72.712997,-72.324188,-622.367432
1733469110,-11.592126,-4.64535,-2.664447,0.982894,1.961302,-4.922128,-71.506775,-74.366104,-621.994019
1733469110,-10.881946,-4.192247,-1.954866,1.004403,1.915624,-5.330485,-69.114609,-76.134857,-622.763184
1733469110,-9.843162,-3.319561,-1.275212,1.044119,1.767192,-5.692071,-67.04187,-78.112946,-623.10437
1733469110,-8.560618,-2.192789,-0.984765,1.110304,1.622249,-6.000038,-64.720215,-79.996964,-623.198975
1733469110,-7.305308,-1.205929,-0.770185,1.188957,1.460582,-6.260201,-62.237579,-81.839706,-623.279907
1733469110,-5.819556,-0.391452,-0.625485,1.284299,1.277176,-6.466837,-59.753159,-83.477875,-622.65271
1733469110,-4.340089,0.216975,-0.45834,1.404052,1.061752,-6.621561,-56.618423,-85.101288,-622.444092
1733469110,-2.983026,0.823605,-0.22311,1.53145,0.827106,-6.713844,-53.9095,-86.216675,-621.137695
1733469110,-1.82094,1.280748,0.118812,1.632064,0.585196,-6.759011,-50.909897,-87.084534,-620.638062
1733469110,-0.872986,1.459266,0.593912,1.67621,0.304535,-6.787232,-47.751968,-88.040695,-619.860962
1733469110,-0.306308,1.683423,1.020977,1.633843,0.060765,-6.849548,-44.509949,-88.75708,-618.648682
1733469111,-0.102801,1.894262,1.256357,1.517434,-0.11012,-6.972456,-41.138321,-89.064468,-618.50293
1733469111,-0.117017,2.034922,1.310975,1.35336,-0.193926,-7.159424,-37.936493,-89.162094,-617.578857
1733469111,0.238971,2.346767,1.096544,1.184767,-0.19741,-7.371499,-34.363861,-88.865982,-617.058899
1733469111,1.277606,3.164686,0.935235,1.051513,-0.225613,-7.530021,-30.797104,-88.362793,-616.53479
1733469111,2.867356,4.42643,0.868646,0.987185,-0.312927,-7.53283,-27.703506,-87.58783,-616.294617
1733469111,4.987272,5.52492,0.866701,0.939979,-0.417575,-7.387118,-24.463043,-86.633942,-615.878174
1733469111,7.327155,6.159832,1.192312,0.789912,-0.561423,-7.113999,-21.798584,-85.52771,-615.463257
1733469111,9.510966,6.621015,1.281197,0.576577,-0.68256,-6.711512,-19.294525,-84.182602,-615.549805
1733469111,11.559655,6.849362,0.979977,0.417025,-0.789268,-6.188527,-16.640289,-82.976135,-615.774841
1733469111,13.366529,6.655282,0.783652,0.3131,-0.919896,-5.579607,-15.046097,-81.768768,-615.239136
1733469111,14.419977,6.365733,0.537798,0.161381,-0.903401,-4.959297,-13.655777,-80.592972,-616.053101
1733469111,15.165622,6.309021,-0.468366,-0.058076,-0.449379,-4.411201,-12.749939,-79.491028,-615.836914
1733469111,16.15308,6.409727,-1.071854,-0.337474,0.306089,-3.982226,-11.748779,-78.591476,-616.609497
1733469111,17.515231,6.743419,-0.519093,-0.620557,0.975075,-3.601552,-11.000519,-77.531357,-615.865417
1733469111,19.073557,7.288099,0.307655,-0.82119,1.401596,-3.273816,-10.816132,-76.793045,-615.873047
1733469111,20.563948,7.725191,0.98671,-0.904149,1.526742,-3.003115,-9.871109,-75.977585,-615.667847
1733469111,22.109854,7.963863,1.900547,-0.861236,1.245468,-2.744522,-9.008331,-75.098572,-615.819763
1733469111,24.053946,9.259425,2.883966,-0.74017,0.555179,-2.305048,-8.632629,-74.402573,-616.067505
1733469111,25.197925,9.642198,3.233968,-0.57077,-0.275728,-1.847883,-7.684921,-73.751221,-616.557678
1733469111,25.578304,9.458443,2.733131,-0.414755,-0.995189,-1.330976,-6.98436,-73.769302,-616.390259
1733469111,25.446772,9.827599,1.369932,-0.283772,-1.360609,-0.731074,-6.709305,-73.314987,-617.35376
1733469111,25.035568,9.721805,0.112677,-0.180862,-1.472175,-0.035545,-6.371078,-73.419205,-617.776245
1733469111,24.49807,9.548076,-0.870292,-0.102597,-1.376816,0.753777,-6.725494,-74.008118,-618.150757
1733469111,23.60219,9.217377,-1.542764,-0.061215,-1.149059,1.582947,-7.354416,-74.682892,-618.756226
1733469111,21.973684,8.657732,-1.818396,-0.084251,-0.80896,2.335335,-8.320099,-75.46875,-618.735046
1733469111,19.862447,8.139837,-1.820341,-0.169199,-0.411689,2.948493,-9.296417,-76.65329,-618.703735
1733469111,17.782634,7.527969,-1.646612,-0.298842,-0.021055,3.407701,-10.722488,-77.945374,-619.592285
1733469111,15.916503,6.909816,-1.636736,-0.416239,0.365871,3.72926,-11.780365,-78.953537,-618.982361
1733469111,14.621838,6.56116,-1.384746,-0.481683,0.584699,3.978605,-13.53157,-80.127914,-619.130859
1733469111,13.933206,6.314557,-0.49156,-0.481016,0.483852,4.196054,-14.689697,-81.428528,-618.844482
1733469111,13.39885,6.058527,0.37559,-0.386176,0.088146,4.427121,-16.584534,-82.476517,-619.749634
1733469111,12.749273,5.76015,0.842609,-0.234456,-0.421855,4.665748,-18.35524,-83.584854,-619.990051
1733469111,11.781567,5.272032,0.900669,-0.105492,-0.840186,4.885316,-20.513535,-84.644196,-620.330688
1733469111,10.726772,4.793491,0.716166,-0.020325,-1.097207,5.080053,-22.576996,-85.625702,-619.995178
1733469111,9.809493,4.449325,0.417938,0.023477,-1.179666,5.257986,-24.855896,-86.528412,-620.49646
1733469111,9.197625,4.116381,0.301969,0.021677,-1.194512,5.46632,-27.157028,-87.206497,-620.223999
1733469111,8.787917,3.977218,0.271592,0.005763,-1.183313,5.730442,-29.912521,-87.86824,-620.794678
1733469111,8.347534,3.923199,0.217274,0.008028,-1.208349,6.051804,-32.882645,-88.434448,-620.952148
1733469111,7.779509,3.842694,0.128239,0.059896,-1.26156,6.405853,-32.882645,-88.434448,-620.952148
1733469111,7.013066,3.795408,0.027833,0.142861,-1.286665,6.798371,-35.874146,-88.805969,-620.879944
1733469111,6.399102,3.817106,0.134823,0.185313,-1.277806,7.261826,-39.044357,-89.084656,-620.391418
1733469111,5.488109,4.120122,0.444723,0.127701,-1.183759,7.777134,-42.522293,-88.740875,-620.341736
1733469111,4.037671,4.808754,0.744148,-0.042376,-1.008341,8.310969,-46.315674,-88.24971,-620.769409
1733469111,2.434753,5.508011,1.017386,-0.280562,-0.806894,8.835071,-50.39357,-87.314896,-620.807495
1733469111,0.899621,6.128857,1.287183,-0.525065,-0.69926,9.367598,-54.331421,-85.74942,-620.383545
1733469111,-0.867449,6.948272,1.419313,-0.723103,-0.657612,9.909382,-58.595459,-83.786255,-620.973999
1733469111,-3.143886,7.30037,1.303643,-0.890752,-0.550692,10.375311,-62.689087,-81.045837,-621.169922
1733469111,-5.618742,7.391499,1.094449,-1.144221,-0.326144,10.746187,-66.515198,-77.763733,-621.144165
1733469111,-8.251466,8.298902,0.616058,-1.554393,0.066197,11.0366,-69.927032,-74.313934,-621.799072
1733469111,-12.281057,8.986187,0.178817,-2.03909,0.370163,11.099955,-73.770386,-69.994888,-622.640381
1733469111,-19.039739,7.419631,0.382324,-2.458557,0.086507,10.483928,-77.415604,-65.719437,-623.177979
1733469111,-26.29432,3.199402,-0.074968,-2.676368,-0.940163,8.965932,-79.23671,-61.864807,-623.760132
1733469111,-31.281741,-1.021426,-3.514538,-2.361191,-2.03987,7.044701,-80.207611,-58.530319,-623.125122
1733469111,-34.653076,-4.617667,-8.893861,-1.441634,-2.679003,5.053429,-81.010117,-56.255493,-622.133789
1733469111,-36.358795,-7.699753,-13.050045,-0.327083,-2.654285,3.140185,-80.714645,-54.61676,-620.624939
1733469111,-34.670734,-8.346636,-13.776236,0.515755,-2.285717,1.673135,-80.454605,-54.047501,-619.081238
1733469111,-30.79512,-5.933879,-11.387721,1.005815,-1.937606,0.862485,-80.082413,-53.686279,-618.190063
1733469111,-27.155783,-3.011606,-8.969428,1.238952,-1.482414,0.626,-79.909058,-53.402847,-617.129761
1733469111,-24.626609,-1.884835,-7.344812,1.257614,-0.871541,0.709163,-80.631607,-52.816406,-616.472107
1733469111,-23.708133,-3.089418,-6.12362,1.02397,-0.19803,0.760799,-80.961349,-52.761795,-617.09082
1733469111,-25.833586,-8.183681,-5.197961,0.642633,0.336262,0.518774,-81.490906,-52.657242,-617.43335
1733469111,-26.625617,-10.229975,-5.952434,0.322123,0.73628,-0.088921,-81.786972,-52.879517,-617.995178
1733469111,-25.598355,-11.228207,-6.468385,0.171299,1.046088,-0.981805,-81.737,-53.511078,-618.935181
1733469111,-23.153127,-10.691607,-6.234651,0.345723,1.132269,-2.644443,-81.855225,-54.657883,-619.300964
1733469111,-20.611682,-8.982745,-5.478532,0.479706,0.968138,-3.204822,-81.313232,-55.838333,-619.573425
1733469111,-18.337041,-7.265055,-4.831499,0.55608,0.788412,-3.58567,-80.600204,-57.580048,-619.947754
1733469111,-16.284911,-6.095488,-4.659266,0.591635,0.691791,-3.808336,-80.013962,-59.332169,-620.424683
1733469111,-14.46442,-5.475689,-4.855142,0.625828,0.708029,-3.938381,-79.424545,-61.070129,-620.688843
1733469111,-13.168857,-5.316325,-5.068525,0.680519,0.818107,-4.036458,-78.593369,-62.767319,-620.844482
1733469111,-12.362909,-5.127183,-5.057003,0.752044,0.998359,-4.138612,-77.685547,-64.772049,-621.104187
1733469111,-11.844116,-4.838382,-4.717625,0.828985,1.18242,-4.274505,-76.66777,-66.568817,-621.443054
1733469111,-11.486033,-4.921581,-4.306271,0.909621,1.346901,-4.488746,-75.861984,-68.471207,-621.481812
1733469111,-11.056124,-5.046079,-3.836559,0.992812,1.455295,-4.76443,-74.39566,-70.095413,-621.74939
1733469111,-10.416573,-4.978144,-3.351433,1.083365,1.529122,-5.079237,-73.020447,-72.348068,-622.268433
1733469111,-9.490466,-4.650587,-2.789694,1.161663,1.539999,-5.410932,-71.534393,-74.152771,-622.24707
1733469111,-8.33242,-4.052785,-2.083105,1.226187,1.424598,-5.71088,-69.230728,-76.314163,-622.412048
1733469111,-7.260566,-3.168277,-1.414674,1.285552,1.257368,-5.948036,-67.374802,-78.277664,-622.519714
1733469111,-6.127959,-2.446575,-1.050755,1.343939,1.093975,-6.143839,-65.040817,-79.950195,-622.608765
1733469111,-5.006575,-2.017414,-0.874033,1.426831,0.912262,-6.303115,-62.637955,-81.709,-622.046326
1733469111,-4.067749,-1.48216,-0.68564,1.54592,0.734933,-6.41417,-59.902115,-83.378906,-621.036255
1733469111,-3.186084,-0.978331,-0.491111,1.670679,0.614255,-6.48466,-57.054443,-84.949509,-621.2005
1733469111,-2.351106,-0.73921,-0.163554,1.739467,0.494008,-6.545259,-54.436508,-86.059265,-620.099854
1733469111,-1.732205,-0.509067,0.300622,1.746211,0.334012,-6.598774,-51.542511,-87.124649,-619.516663
1733469111,-1.268628,-0.188394,0.66469,1.707178,0.185094,-6.648231,-48.572021,-88.026749,-618.56073
1733469111,-0.887201,0.137966,0.795623,1.63168,0.097226,-6.740559,-45.604736,-88.729248,-617.817932
1733469111,-0.704494,0.258125,0.755969,1.503671,0.108259,-6.923544,-42.49675,-88.986679,-616.901978
1733469111,-0.525677,0.529119,0.677858,1.352049,0.154727,-7.130303,-39.060867,-89.088165,-616.292969
1733469111,0.303465,1.310376,0.720505,1.24617,0.169507,-7.257829,-35.501953,-89.047592,-615.403198
1733469111,1.677587,2.340033,0.77198,1.202607,0.133895,-7.27469,-32.228348,-88.657745,-615.333801
1733469111,3.12563,3.215562,0.824204,1.189867,0.048073,-7.230591,-29.172836,-87.968323,-613.701111
1733469111,4.799776,3.841048,1.167024,1.160092,-0.135057,-7.087584,-25.72142,-87.15419,-614.027832
1733469111,6.464344,4.452617,1.931821,1.043103,-0.462047,-6.846174,-22.814087,-86.059692,-613.123596
1733469111,7.3912,4.880281,2.417695,0.832003,-0.822879,-6.61736,-20.059189,-84.923233,-613.188049
1733469111,8.321646,4.985476,1.859547,0.63629,-1.024307,-6.400136,-17.246658,-83.417267,-613.093384
1733469111,9.640552,5.306149,1.011101,0.454218,-1.071537,-6.097313,-14.68689,-81.931641,-612.628418
1733469111,11.087847,5.913229,0.185401,0.263331,-0.901732,-5.670249,-12.461563,-80.508026,-613.541748
1733469111,12.824092,6.426636,-0.778564,0.076827,-0.477626,-5.132544,-10.810776,-78.899307,-613.129028
1733469111,14.455142,6.759879,-1.278653,-0.118803,0.096062,-4.546953,-9.393997,-77.285309,-612.853455
1733469111,15.608998,6.950218,-1.323994,-0.300608,0.722592,-4.018274,-8.12114,-76.136566,-613.115967
1733469111,16.868946,7.586028,-0.826448,-0.476784,1.182142,-3.441577,-7.209015,-74.980408,-612.126343
1733469112,18.181567,8.378808,0.237176,-0.566981,1.344181,-2.896526,-6.868607,-74.049606,-612.861389
1733469112,18.85763,8.170961,0.653318,-0.572047,1.37121,-2.459229,-6.38736,-73.144196,-612.046265
1733469112,19.396026,8.449138,1.241992,-0.53554,1.23321,-2.093887,-6.168839,-72.62262,-612.211609
1733469112,19.550153,9.006987,2.026243,-0.459622,0.93159,-1.834467,-6.012497,-71.866211,-611.570862
1733469112,19.672706,9.353248,2.706196,-0.353723,0.46784,-1.651017,-5.615875,-71.352051,-611.684326
1733469112,19.967043,9.784354,3.369091,-0.235238,-0.138802,-1.51717,-5.233704,-70.969452,-612.014038
1733469112,20.772243,10.321254,3.496732,-0.125485,-0.745143,-1.330553,-4.770065,-70.246353,-611.625122
1733469112,21.986552,10.590152,2.834884,-0.043087,-1.204696,-0.988877,-4.102142,-70.04274,-612.347412
1733469112,22.921339,10.865486,1.889923,0.039989,-1.487769,-0.458665,-3.666,-69.608978,-612.955933
1733469112,23.355587,11.051785,0.901118,0.097275,-1.557537,0.233002,-3.365173,-69.546844,-612.885742
1733469112,23.286604,10.943148,0.177919,0.12374,-1.467409,1.023242,-3.156052,-69.946808,-613.829895
1733469112,22.530485,10.649708,-0.303166,0.12675,-1.249984,1.830487,-3.420013,-70.450806,-614.548218
1733469112,21.124789,10.375722,-0.539294,0.093305,-0.924407,2.574891,-3.939362,-71.266312,-614.592834
1733469112,19.499276,10.056994,-0.439635,0.000669,-0.574337,3.212316,-4.502396,-72.379944,-614.645386
1733469112,18.016068,9.606435,0.122404,-0.149213,-0.328864,3.751896,-5.861755,-73.6026,-614.569702
1733469112,16.679655,9.144504,0.614412,-0.321623,-0.186796,4.206336,-6.95845,-75.344208,-615.090393
1733469112,15.473426,8.872163,0.835876,-0.480419,-0.137895,4.60092,-8.352219,-76.874557,-615.851074
1733469112,14.477139,8.541614,0.968006,-0.579601,-0.222411,4.957119,-10.059738,-78.355728,-615.712158
1733469112,13.623606,8.079682,1.027262,-0.589988,-0.458045,5.305665,-11.759644,-80.010895,-616.375488
1733469112,12.640337,7.786991,0.956932,-0.501835,-0.77487,5.643362,-13.74614,-81.382553,-616.120789
1733469112,11.514763,7.489212,0.784101,-0.350009,-1.090006,5.946414,-15.654953,-83.007828,-617.330933
1733469112,10.530896,7.153426,0.771083,-0.182199,-1.407899,6.241464,-18.339767,-84.386215,-617.758301
1733469112,9.572168,6.724115,0.801908,-0.026424,-1.690173,6.534459,-20.949677,-85.550186,-617.96106
1733469112,8.426093,6.402544,0.587328,0.108292,-1.828209,6.813442,-23.843399,-86.718216,-618.410583
1733469112,7.288848,6.155044,0.350751,0.204273,-1.844788,7.116698,-26.671036,-87.622345,-618.195923
1733469112,6.182876,6.028151,0.262015,0.272877,-1.779751,7.47165,-29.821091,-88.436096,-618.090515
1733469112,5.07047,6.033837,0.284461,0.306132,-1.62098,7.88105,-33.471252,-88.954834,-618.212219
1733469112,4.00131,6.275203,0.595109,0.2724,-1.434989,8.383828,-36.984055,-89.279724,-618.225159
1733469112,2.597858,6.919542,1.122282,0.140701,-1.175807,8.972953,-41.112534,-88.924088,-618.117737
1733469112,0.847098,7.474847,1.564461,-0.130434,-0.845552,9.568218,-45.4384,-88.602921,-617.640686
1733469112,-1.120037,7.338976,2.047342,-0.537463,-0.527324,10.102501,-50.081772,-87.381683,-618.397461
1733469112,-3.610007,6.756437,2.438794,-1.026021,-0.247134,10.476454,-54.863373,-85.611572,-618.876038
1733469112,-5.976676,5.735909,2.58469,-1.599251,0.021308,10.635398,-59.377838,-83.394028,-619.80719
1733469112,-7.660248,5.218462,2.067692,-2.183754,0.290274,10.746289,-63.363297,-80.333832,-621.085938
1733469112,-10.189423,6.113594,1.405396,-2.661286,0.403452,10.824238,-67.229233,-77.149902,-621.87915
1733469112,-14.869339,7.024139,1.26773,-2.939427,-0.110437,10.586586,-71.305923,-73.316193,-622.594788
1733469112,-20.155587,5.876568,0.283414,-2.880808,-1.165653,9.844018,-74.150757,-69.473465,-623.631958
1733469112,-25.830294,2.234538,-3.276615,-2.356291,-2.049036,8.595198,-76.818222,-65.969162,-623.505737
1733469112,-32.045342,-3.596689,-8.721179,-1.526256,-2.109559,6.758497,-78.216202,-62.857895,-622.969299
1733469112,-36.263476,-9.380781,-13.107356,-0.802873,-1.43465,4.612181,-78.836212,-60.835999,-621.33197
1733469112,-36.029293,-11.56983,-14.304457,-0.321661,-0.570939,2.685589,-79.028824,-59.498016,-621.920349
1733469112,-32.357486,-10.588955,-12.679542,0.016229,-0.028446,1.29853,-79.181076,-59.189011,-621.673645
1733469112,-27.640909,-8.366089,-9.239673,0.338791,-0.215613,0.43273,-78.722015,-59.303314,-621.639038
1733469112,-23.642592,-5.912481,-5.986701,0.674591,-0.980878,0.057352,-78.758591,-58.983429,-620.500122
1733469112,-21.217714,-4.267814,-4.158878,0.883936,-1.792236,-0.017821,-78.779999,-58.994003,-619.205994
1733469112,-20.497359,-5.070321,-4.106205,0.872687,-2.120509,-0.012266,-78.793259,-59.053406,-618.390442
1733469112,-21.207389,-7.135619,-5.36765,0.649355,-1.773135,-0.106843,-78.884735,-59.04248,-617.434753
1733469112,-22.473623,-9.37734,-7.140856,0.30196,-0.789909,-0.40272,-78.989166,-59.331635,-617.456604
1733469112,-23.460483,-11.22297,-8.738238,-0.029619,0.556794,-0.883405,-79.139694,-59.804184,-617.903015
1733469112,-23.215376,-11.964125,-9.129989,-0.232326,1.771387,-1.439399,-78.778198,-60.71846,-618.504028
1733469112,-21.565472,-11.271602,-8.08462,-0.276253,2.42241,-1.931919,-78.887573,-61.639206,-620.031738
1733469112,-19.499276,-9.609727,-6.723666,-0.178926,2.459721,-2.329412,-78.411819,-62.925415,-621.384399
1733469112,-17.618182,-8.226776,-5.782745,0.060896,2.053095,-2.683927,-77.590378,-64.208115,-622.583313
1733469112,-16.156671,-7.571064,-5.359869,0.375684,1.425948,-3.018424,-76.921005,-65.624557,-622.756409
1733469112,-15.123723,-7.120655,-5.392191,0.692769,0.819472,-3.339352,-76.192886,-66.966873,-622.628174
1733469112,-14.380174,-6.778883,-5.823147,0.958083,0.435877,-3.65857,-75.025833,-68.47435,-623.043945
1733469112,-13.734039,-6.40823,-6.234052,1.165527,0.346572,-3.960675,-74.108063,-70.104568,-622.065247
1733469112,-13.074436,-5.789778,-6.319495,1.321793,0.518627,-4.229941,-72.524887,-71.700668,-621.924927
1733469112,-12.345551,-5.037251,-5.935974,1.420211,0.84774,-4.469346,-71.170258,-73.442154,-622.018799
1733469112,-11.423933,-4.424934,-5.146636,1.466964,1.208402,-4.685514,-69.463379,-75.671265,-621.23468
1733469112,-10.329783,-3.914669,-4.12087,1.476081,1.493797,-4.886744,-68.05658,-76.999252,-622.080933
1733469112,-9.25763,-3.46441,-3.162291,1.478338,1.652166,-5.080729,-66.159424,-78.752777,-622.190796
1733469112,-8.222287,-3.245939,-2.57676,1.510285,1.724423,-5.312562,-64.079941,-80.472305,-621.916504
1733469112,-7.194875,-2.85733,-2.096572,1.576603,1.729609,-5.56535,-61.871063,-82.200882,-622.501587
1733469112,-6.112397,-2.213739,-1.555932,1.669204,1.683485,-5.825307,-59.561646,-83.549652,-621.725891
1733469112,-5.036652,-1.58152,-0.897077,1.75566,1.518099,-6.067226,-56.727859,-84.981613,-621.114014
1733469112,-3.908684,-0.760309,-0.204854,1.829809,1.236001,-6.244208,-53.953018,-86.076172,-620.419678
1733469112,-2.729839,-0.010774,0.234931,1.893894,0.927394,-6.360388,-51.14093,-87.145981,-620.029175
1733469112,-1.80852,0.420931,0.474202,1.955225,0.618853,-6.463947,-48.282104,-87.887222,-619.126221
1733469112,-1.072602,0.535403,0.597353,2.010502,0.33375,-6.598696,-45.314285,-88.758484,-617.583008
1733469112,-0.23942,0.820014,0.792032,2.039372,0.056764,-6.718832,-41.785645,-88.873215,-616.934326
1733469112,0.75552,1.487697,1.268628,2.030738,-0.26345,-6.795403,-38.82283,-89.168686,-616.267395
1733469112,1.739238,2.084003,1.869123,1.963277,-0.617733,-6.862135,-35.682663,-89.025436,-615.248657
1733469112,2.689886,2.542941,2.483236,1.810326,-0.999143,-6.903316,-32.222168,-88.579071,-614.342896
1733469112,3.574543,3.011307,3.012504,1.549439,-1.363857,-6.888934,-28.90004,-87.989273,-613.938599
1733469112,4.191948,3.39842,2.912696,1.183631,-1.553723,-6.829442,-25.857529,-87.145706,-613.297058
1733469112,4.414609,3.545663,2.044798,0.769511,-1.440477,-6.763245,-22.977661,-86.10733,-613.423828
1733469112,4.809353,3.724779,0.935235,0.393539,-1.06135,-6.668142,-19.961914,-84.713455,-613.501648
1733469112,6.294655,4.357746,0.284012,0.112331,-0.619433,-6.444126,-17.61261,-83.599106,-613.144043
1733469112,7.971943,5.053561,0.157269,-0.125618,-0.253178,-6.117499,-15.237289,-82.27774,-612.803528
1733469112,9.072229,5.362712,0.016759,-0.342149,0.074442,-5.773423,-13.441528,-80.893448,-613.241821
1733469112,10.238354,5.49978,-0.409857,-0.467308,0.445101,-5.429922,-11.367905,-79.54158,-613.647644
1733469112,11.44174,5.674108,-0.514604,-0.501545,0.716267,-5.034622,-10.08725,-78.09169,-613.059204
1733469112,12.283901,5.65256,-0.270395,-0.516061,0.876708,-4.650546,-8.718842,-76.716064,-613.148438
1733469112,12.852224,5.597793,-0.217872,-0.530085,0.999518,-4.266498,-8.718842,-76.716064,-613.148438
1733469112,13.860183,6.070049,0.065092,-0.541817,0.985496,-3.84749,-7.851761,-75.742126,-613.559692
1733469112,15.005809,6.041618,0.143951,-0.523607,0.889646,-3.455181,-6.898285,-74.507477,-613.187012
1733469112,15.886426,6.073491,-0.04549,-0.433412,0.75694,-3.118462,-6.358871,-73.110779,-612.910156
1733469112,16.587927,6.562656,0.056114,-0.292026,0.555052,-2.860193,-5.940445,-72.463394,-612.633118
1733469112,17.207726,7.10225,0.599897,-0.156252,0.248674,-2.694783,-5.299423,-71.702042,-612.804321
1733469112,17.832912,7.627029,1.019331,-0.032286,-0.089138,-2.607151,-4.865295,-70.715485,-612.594604
1733469112,18.635418,8.226028,1.048511,0.093189,-0.384808,-2.571987,-4.501648,-69.728455,-613.162292
1733469112,20.008942,8.956559,1.114202,0.18187,-0.657886,-2.470024,-3.679718,-68.702713,-613.319214
1733469112,21.921011,9.795278,1.346888,0.240949,-1.011739,-2.1973,-3.043457,-67.7798,-613.089844
1733469112,23.757962,10.755502,1.178845,0.33383,-1.367645,-1.703122,-2.355392,-66.999115,-613.275513
1733469112,25.02659,11.372907,0.704344,0.419728,-1.65904,-1.04441,-1.897079,-66.558182,-613.843689
1733469112,25.385421,11.237185,0.21039,0.43253,-1.814921,-0.306459,-1.40799,-66.267593,-614.448547
1733469112,24.942793,10.852467,-0.801908,0.387955,-1.669418,0.477931,-1.075272,-66.213043,-615.070801
1733469112,24.085369,10.66946,-1.841291,0.312585,-1.268349,1.302729,-1.244156,-66.669968,-615.274414
1733469112,23.158065,10.363152,-2.406322,0.227935,-0.764925,2.130734,-1.556152,-67.378647,-615.619385
1733469113,21.930738,10.001777,-2.519598,0.165899,-0.30434,2.904523,-2.176239,-68.453217,-615.372742
1733469113,20.404883,9.741109,-2.216881,0.147448,0.02041,3.590845,-3.141296,-69.738358,-616.2052
1733469113,18.692281,9.330054,-1.668609,0.140483,0.218048,4.155005,-4.018051,-71.198761,-615.640381
1733469113,16.781558,8.808866,-1.054795,0.115314,0.318466,4.569737,-5.285416,-72.810257,-615.886658
1733469113,15.122227,8.334515,-0.439635,0.066345,0.330018,4.867333,-6.728333,-74.385818,-615.524353
1733469113,13.940688,7.788338,0.070629,0.006984,0.228751,5.099858,-8.276627,-76.179718,-615.237732
1733469113,12.957868,7.321319,0.402525,-0.028484,0.044818,5.3055,-10.108368,-77.748276,-615.44635
1733469113,12.060043,7.024438,0.356586,-0.037827,-0.117068,5.494704,-11.982193,-79.476929,-616.059937
1733469113,11.220875,6.75928,0.118363,-0.034315,-0.22594,5.688153,-13.864456,-80.978394,-615.487488
1733469113,10.430788,6.512079,-0.098013,-0.016699,-0.288707,5.902709,-15.701157,-82.486694,-615.539795
1733469113,9.551219,6.266673,-0.213682,0.01895,-0.331029,6.121443,-17.997101,-83.85434,-615.882935
1733469113,8.637531,5.977573,-0.236727,0.067177,-0.373076,6.343983,-20.713608,-85.016113,-615.865295
1733469113,7.703344,5.583129,-0.036063,0.095682,-0.428743,6.552886,-23.597534,-86.249634,-616.050842
1733469113,6.574478,5.247641,0.256628,0.098612,-0.507187,6.719557,-26.514542,-87.320602,-615.866089
1733469113,5.423914,4.921581,0.418536,0.102189,-0.573822,6.835614,-29.4189,-88.163879,-615.891479
1733469113,4.479252,4.608389,0.61531,0.108788,-0.670838,6.94589,-32.543427,-88.687408,-616.23291
1733469113,3.631106,4.4595,0.901118,0.106927,-0.799567,7.068375,-35.553299,-89.209503,-616.217896
1733469113,2.841169,4.396054,1.119289,0.116402,-0.927146,7.230622,-38.701355,-89.263229,-615.824829
1733469113,2.154333,4.464887,1.339855,0.083885,-0.983089,7.461823,-42.453995,-89.171646,-616.117188
1733469113,1.526304,4.687697,1.399261,-0.055408,-0.916017,7.749053,-45.851074,-88.450317,-615.722656
1733469113,0.909647,5.178209,1.214908,-0.281498,-0.735248,8.126212,-49.072037,-87.943436,-616.061157
1733469113,-0.138564,5.986103,0.877924,-0.537034,-0.442124,8.586555,-52.990173,-86.670624,-616.106384
1733469113,-1.808221,6.398803,0.674267,-0.843856,-0.07871,9.008961,-56.751328,-85.004669,-616.576233
1733469113,-3.671209,6.16896,0.711377,-1.219605,0.258629,9.330573,-60.591919,-82.841858,-617.129517
1733469113,-5.478083,5.89228,0.674866,-1.620084,0.544995,9.594524,-64.291687,-80.304947,-617.683228
1733469113,-7.774871,5.699397,0.402675,-2.013108,0.853462,9.760526,-68.046295,-77.266052,-619.324219
1733469113,-10.106973,5.328595,-0.113126,-2.413754,1.146191,9.752965,-71.255951,-74.00885,-620.700623
1733469113,-12.616844,5.361515,-0.145148,-2.769814,0.979403,9.583364,-74.129257,-70.25354,-621.611023
1733469113,-16.093225,5.540781,0.176572,-2.898129,-0.016355,9.147734,-76.988998,-66.433502,-622.597778
1733469113,-20.424336,4.200028,-0.924611,-2.584505,-1.579266,8.335157,-78.774826,-62.704636,-621.34314
1733469113,-25.393801,1.227178,-4.105158,-1.785627,-2.950362,7.160101,-79.930664,-59.306808,-621.31488
1733469113,-31.233558,-3.457526,-8.398261,-0.794344,-3.447467,5.535751,-80.495132,-56.778015,-619.893799
1733469113,-35.859155,-7.852682,-11.206659,-0.006877,-3.156213,3.659561,-80.943115,-54.931488,-618.209961
1733469113,-36.919039,-9.721057,-11.499201,0.353914,-2.405926,1.926554,-80.653229,-54.085266,-616.789062
1733469113,-34.372955,-8.905682,-9.910798,0.447261,-1.64272,0.707778,-80.133896,-53.753494,-615.894165
1733469113,-30.222606,-6.487239,-7.7216,0.481374,-1.131785,0.066038,-80.107834,-53.888855,-615.082275
1733469113,-26.665571,-4.685004,-5.88809,0.485423,-0.854156,-0.200348,-80.357224,-54.016144,-614.991638
1733469113,-24.391378,-4.44693,-4.936694,0.408666,-0.647314,-0.29712,-80.640762,-53.976364,-614.288879
1733469113,-23.376087,-5.856666,-5.083189,0.238428,-0.292134,-0.431326,-80.824387,-54.277939,-614.291626
1733469113,-23.285257,-8.019827,-6.107908,0.027316,0.299664,-0.711907,-81.207397,-54.752258,-614.255066
1733469113,-23.087586,-9.898228,-7.285705,-0.135627,1.011254,-1.140411,-81.129807,-55.196274,-615.734985
1733469113,-22.163424,-10.688165,-7.884106,-0.174545,1.605693,-1.604834,-81.057419,-56.244095,-616.184082
1733469113,-20.856639,-10.102035,-7.671471,-0.079446,1.925743,-2.051009,-80.892548,-57.137878,-617.130371
1733469113,-19.421914,-8.934113,-7.020847,0.113009,1.943655,-2.460535,-80.393524,-58.566483,-618.107666
1733469113,-17.954268,-7.628525,-6.165369,0.374009,1.713285,-2.787683,-79.948456,-59.940857,-618.699646
1733469113,-16.629077,-6.616077,-5.508011,0.646241,1.35675,-3.049763,-79.421814,-61.182312,-619.079956
1733469113,-15.615582,-6.072593,-5.114164,0.881101,1.012846,-3.285875,-78.827148,-62.865005,-619.223633
1733469113,-14.821904,-5.759102,-4.85589,1.049774,0.793795,-3.515307,-78.07431,-64.321823,-619.655579
1733469113,-14.05157,-5.572355,-4.690989,1.153712,0.732697,-3.737193,-77.116013,-65.947525,-619.540039
1733469113,-13.404686,-5.505467,-4.464139,1.190877,0.80366,-3.961882,-75.928223,-67.88649,-619.202942
1733469113,-12.951733,-5.386654,-4.078373,1.168619,0.951802,-4.224186,-74.821991,-69.666855,-619.916504
1733469113,-12.407052,-5.189432,-3.688567,1.126372,1.117967,-4.521019,-73.862305,-71.555054,-619.926025
1733469113,-11.735479,-4.91784,-3.357569,1.096503,1.284786,-4.835749,-72.198471,-73.469696,-620.217285
1733469113,-11.11134,-4.258387,-2.829647,1.078649,1.403787,-5.155664,-70.330704,-75.484833,-620.177856
1733469113,-10.249727,-3.38989,-2.347515,1.103916,1.457959,-5.442579,-68.338043,-77.13681,-620.174988
1733469113,-9.17922,-2.503886,-1.994969,1.193614,1.454191,-5.685498,-66.33989,-79.102875,-620.596252
1733469113,-8.170363,-1.740136,-1.525406,1.311194,1.394455,-5.906343,-63.976913,-80.880432,-620.572632
1733469113,-7.106439,-1.092654,-1.041178,1.422077,1.262364,-6.113849,-61.81041,-82.541229,-620.268188
1733469113,-6.017527,-0.795174,-0.616507,1.523352,1.056055,-6.296896,-58.753311,-84.10405,-619.851196
1733469113,-5.071817,-0.461033,-0.180463,1.591007,0.801616,-6.460512,-56.202271,-85.417999,-618.206726
1733469113,-4.365378,-0.219818,0.107889,1.620555,0.530944,-6.636068,-53.271408,-86.485535,-618.645264
1733469113,-3.734057,0.073472,0.253037,1.627617,0.259273,-6.822778,-50.313828,-87.553894,-617.774841
1733469113,-3.239953,0.586729,0.294337,1.614522,0.039508,-7.033792,-46.986633,-88.269394,-616.855835
1733469113,-2.804807,0.922516,-0.025738,1.606527,-0.087443,-7.268204,-43.322723,-88.710556,-616.438293
1733469113,-2.269404,1.557279,-0.319776,1.62803,-0.157246,-7.486262,-39.915436,-89.122482,-615.255676
1733469113,-1.525705,2.321029,-0.619799,1.662475,-0.1702,-7.675038,-36.22348,-88.919235,-614.413086
1733469113,-0.648679,3.039888,-0.869245,1.691241,-0.094561,-7.817502,-32.863647,-88.518082,-613.880554
1733469113,0.087987,3.72014,-0.980276,1.686598,0.057581,-7.944458,-28.905502,-87.683685,-612.290283
1733469113,1.009306,4.702362,-1.017985,1.668878,0.268093,-8.030139,-25.244995,-86.722519,-611.628418
1733469113,2.781314,5.852776,-0.613065,1.672552,0.390172,-7.962401,-21.999069,-85.360886,-610.031494
1733469113,5.006725,6.913557,0.479439,1.647792,0.31406,-7.709335,-19.126251,-83.896271,-609.648865
1733469113,7.276278,7.616105,1.856404,1.50796,0.073899,-7.345516,-16.11441,-82.151138,-609.29303
1733469113,9.833136,7.73402,3.212719,1.222658,-0.361984,-6.863482,-13.812805,-80.612457,-609.498474
1733469113,12.302156,7.799411,4.354903,0.826897,-1.021252,-6.227769,-11.710052,-78.910492,-609.700378
1733469113,13.319842,7.335385,3.928885,0.417064,-1.504906,-5.614025,-9.715561,-77.347488,-609.559692
1733469113,12.939912,6.640618,1.871817,0.105053,-1.494116,-5.128889,-8.041306,-75.606827,-610.021179
1733469113,12.714408,6.55293,-0.481235,-0.13778,-0.911928,-4.711258,-6.877426,-74.397644,-610.339783
1733469113,13.420548,6.894702,-2.111985,-0.398419,0.132354,-4.300439,-6.182281,-72.944748,-609.930542
1733469113,14.779407,7.912836,-2.571373,-0.651019,1.352713,-3.905732,-5.69783,-72.102783,-610.125671
1733469113,16.471359,9.086743,-1.602768,-0.810465,2.260787,-3.525724,-5.331787,-71.245621,-608.616272
1733469113,18.617013,9.557653,0.458639,-0.837266,2.520794,-3.18277,-5.502945,-70.176056,-608.756897
1733469113,20.589835,10.123134,2.36996,-0.752238,2.183535,-2.789119,-5.083603,-69.514023,-608.383545
1733469113,21.879861,11.293749,3.598635,-0.548751,1.471497,-2.408337,-4.671082,-68.597488,-608.381653
1733469113,22.666506,11.233295,4.16217,-0.228833,0.499942,-2.079294,-4.060959,-67.820114,-607.987488
1733469113,23.138612,11.361983,4.365527,0.104456,-0.498424,-1.773694,-3.495789,-67.165421,-608.286987
1733469113,23.449709,11.463288,3.836858,0.356095,-1.264299,-1.417764,-2.887009,-66.699081,-608.709106
1733469113,23.889793,11.675923,2.567033,0.518822,-1.549568,-0.915448,-2.391403,-66.360947,-609.176758
1733469113,24.567651,12.045079,1.487697,0.576049,-1.4734,-0.243413,-2.215958,-66.167831,-609.706421
1733469113,25.152884,11.884667,1.212663,0.518179,-1.260261,0.543327,-2.299347,-66.712479,-609.855164
1733469113,24.932019,11.304223,1.240346,0.391102,-1.037319,1.379141,-2.42926,-67.437897,-609.279114
1733469113,23.722049,10.819996,1.103577,0.237208,-0.777014,2.185879,-2.816025,-68.522415,-610.614075
1733469113,21.878813,10.222194,0.820164,0.064382,-0.448549,2.90082,-3.822845,-69.691193,-610.583252
1733469113,19.706524,9.677363,0.709582,-0.115635,-0.107285,3.47803,-4.784607,-70.976105,-610.688538
1733469113,17.676391,9.213187,0.910994,-0.296661,0.190564,3.919832,-5.903,-72.477722,-610.844727
1733469113,16.14051,8.680178,1.295562,-0.46486,0.350375,4.255655,-7.126297,-74.175797,-610.98938
1733469113,14.867394,8.180987,1.705869,-0.609105,0.353776,4.517587,-8.804443,-75.701904,-611.245483
1733469113,13.956101,7.624784,1.977611,-0.719875,0.230463,4.748077,-10.144531,-77.344711,-611.081238
1733469113,13.227366,7.128586,2.064849,-0.806384,0.008882,4.977414,-11.77417,-78.644791,-611.487305
1733469113,12.52347,6.828562,1.915511,-0.85982,-0.246543,5.222076,-13.98053,-80.39296,-612.149536
1733469113,11.672481,6.537218,1.562067,-0.874912,-0.476684,5.475068,-15.689407,-81.80426,-611.542969
1733469114,10.755951,6.204274,1.038485,-0.849516,-0.629892,5.714937,-18.076874,-83.466507,-613.244324
1733469114,9.852439,5.942259,0.671574,-0.694045,-0.883964,6.2223,-20.27504,-84.532074,-613.675781
1733469114,7.958626,5.412392,0.015712,-0.558845,-0.966143,6.480922,-23.084518,-85.612274,-614.115234
1733469114,6.881384,5.133468,-0.13617,-0.415458,-1.026552,6.719805,-25.704712,-86.920151,-614.634521
1733469114,5.804892,4.835539,-0.197671,-0.298436,-1.053877,6.944714,-28.731155,-87.78717,-614.52063
1733469114,4.842273,4.660164,-0.222212,-0.205976,-1.070741,7.191371,-31.752335,-88.283432,-614.763062
1733469114,4.014478,4.700566,-0.087987,-0.123812,-1.096363,7.483666,-35.28009,-88.900925,-614.870605
1733469114,3.079093,4.953005,0.045041,-0.07471,-1.091972,7.80275,-38.596527,-88.935425,-614.853333
1733469114,2.285565,5.211279,0.027683,-0.070532,-1.00122,8.145298,-42.321152,-88.514313,-614.778809
1733469114,1.333271,5.647622,-0.026785,-0.126389,-0.803135,8.531516,-46.010559,-88.283035,-614.313232
1733469114,0.093823,6.212504,-0.031723,-0.268488,-0.472572,8.920587,-50.421188,-87.24913,-614.890198
1733469114,-1.256806,6.41661,-0.001496,-0.514549,-0.085502,9.277546,-54.486938,-85.845367,-615.321533
1733469114,-2.569128,6.343138,0.159963,-0.84273,0.271091,9.599372,-58.523331,-83.872528,-615.681702
1733469114,-3.963451,6.300641,0.376339,-1.233842,0.640905,9.911429,-62.540298,-81.696091,-616.441162
1733469114,-5.724536,6.099528,0.493206,-1.719363,1.088396,10.149211,-66.463699,-78.642883,-617.404236
1733469114,-7.848642,5.915025,0.770185,-2.350042,1.450651,10.230391,-70.214569,-75.24585,-618.577515
1733469114,-10.230424,6.148759,1.28,-3.014488,1.331838,10.081966,-73.534637,-71.71254,-620.560608
1733469114,-12.703185,5.619491,1.072602,-3.423445,0.588121,9.662358,-76.400726,-67.82103,-621.638123
1733469114,-15.346833,4.050391,-0.934038,-3.328553,-0.394341,9.058173,-78.17659,-63.922226,-622.2948
1733469114,-19.280656,1.65559,-4.450971,-2.770689,-1.002602,8.191405,-80.505646,-60.210266,-622.119385
1733469114,-24.018631,-1.872565,-7.945009,-2.135019,-0.978123,6.912549,-81.411118,-56.774063,-622.15918
1733469114,-27.613674,-4.958092,-10.153211,-1.734535,-0.570521,5.38111,-81.528931,-54.117325,-622.290833
1733469114,-28.902354,-5.239261,-9.918429,-1.508392,-0.397185,3.96683,-81.621323,-52.181244,-621.875366
1733469114,-28.621484,-3.390339,-8.081478,-1.254819,-0.930445,2.823129,-81.860718,-50.980301,-621.265808
1733469114,-27.438299,-2.41156,-7.372345,-0.801684,-1.839682,1.938013,-82.0392,-50.102554,-620.685669
1733469114,-26.305243,-2.484433,-8.17979,-0.177415,-2.625462,1.302812,-82.005707,-49.214905,-618.76532
1733469114,-26.204836,-3.028815,-9.142259,0.399083,-2.987583,0.796921,-81.564621,-48.858078,-617.542908
1733469114,-27.06645,-3.957017,-9.657312,0.753098,-2.813188,0.294539,-81.720413,-48.631714,-615.753296
1733469114,-27.909658,-5.401618,-10.083629,0.891168,-2.080895,-0.227722,-81.720413,-48.631714,-615.753296
1733469114,-27.971308,-6.981043,-10.272621,0.826749,-0.91676,-0.791819,-81.776703,-48.827911,-614.99939
1733469114,-26.882844,-7.892935,-9.580847,0.608548,0.293809,-1.316149,-81.614594,-49.38089,-614.379272
1733469114,-24.749461,-8.037185,-8.357709,0.378653,1.235254,-1.728365,-81.866364,-50.207993,-614.933655
1733469114,-22.208764,-7.604882,-7.319972,0.266295,1.826429,-2.019466,-81.997879,-51.088165,-615.812927
1733469114,-19.854516,-6.778434,-6.365733,0.29467,2.085892,-2.235712,-82.397614,-52.167206,-616.899109
1733469114,-18.13488,-6.153697,-5.279364,0.388786,2.008841,-2.434637,-81.935318,-53.335785,-617.684326
1733469114,-17.095647,-5.686079,-4.226963,0.481592,1.661288,-2.658705,-81.703766,-54.602371,-618.732422
1733469114,-16.608128,-5.660641,-3.793463,0.563883,1.254067,-2.961407,-81.522842,-56.028549,-619.323547
1733469114,-16.200964,-6.012289,-4.025252,0.653244,0.917617,-3.329287,-81.062271,-57.346619,-620.031433
1733469114,-15.660323,-5.93373,-4.367622,0.762832,0.712784,-3.692766,-80.499252,-59.196701,-620.437805
1733469114,-15.080328,-5.553949,-4.715231,0.891141,0.65725,-4.049558,-80.011414,-60.835648,-620.506409
1733469114,-14.267497,-5.072565,-4.725256,1.032185,0.667359,-4.365858,-79.101822,-62.779343,-620.474976
1733469114,-13.402442,-4.455909,-4.341885,1.164257,0.721189,-4.632963,-77.942276,-64.704102,-620.790649
1733469114,-12.495189,-3.900155,-3.795558,1.254086,0.793192,-4.877904,-76.881058,-66.690765,-620.92334
1733469114,-11.505635,-3.377171,-3.173514,1.303725,0.847122,-5.103956,-75.505981,-68.757187,-620.542236
1733469114,-10.480618,-3.143886,-2.817377,1.338162,0.931237,-5.333323,-74.176773,-70.839142,-620.838379
1733469114,-9.452159,-3.007117,-2.548029,1.375019,1.046015,-5.566621,-72.660843,-73.014038,-620.531494
1733469114,-8.51438,-2.546682,-2.116774,1.420424,1.126333,-5.76956,-70.651947,-74.986923,-620.672302
1733469114,-7.709479,-2.10181,-1.668759,1.488656,1.174729,-5.961675,-68.657547,-77.059952,-620.435059
1733469114,-6.928969,-1.781286,-1.196652,1.576239,1.15458,-6.171164,-66.631943,-79.033707,-620.314209
1733469114,-6.018724,-1.437568,-0.632069,1.663011,1.010751,-6.388208,-64.331451,-80.896469,-619.756592
1733469114,-5.042488,-1.236904,-0.106991,1.745848,0.767094,-6.62163,-61.724869,-82.731583,-619.412109
1733469114,-4.113089,-0.942418,0.250344,1.805422,0.465117,-6.839224,-58.817169,-84.166595,-618.832642
1733469114,-3.28679,-0.467019,0.533159,1.840072,0.149475,-7.013502,-55.812958,-85.297195,-617.73407
1733469114,-2.290353,0.096516,0.609624,1.85092,-0.124421,-7.183063,-52.729218,-86.780457,-617.403503
1733469114,-1.30888,0.675913,0.529268,1.84541,-0.334955,-7.317816,-49.370926,-87.709122,-616.368958
1733469114,-0.329203,1.190517,0.547374,1.819156,-0.530251,-7.410648,-45.896957,-88.253616,-614.929443
1733469114,0.511611,1.660678,0.547823,1.781526,-0.739633,-7.461032,-42.286087,-88.658752,-614.586121
1733469114,1.092504,2.070236,0.356736,1.732735,-0.843236,-7.503751,-39.073166,-88.622009,-613.787231
1733469114,1.613093,2.410512,0.11956,1.631772,-0.7482,-7.568585,-35.440826,-88.409286,-612.542419
1733469114,2.322525,2.955043,0.333093,1.453329,-0.605335,-7.60219,-31.922348,-87.967041,-611.498413
1733469114,3.729268,4.033781,0.967856,1.199819,-0.500831,-7.485824,-28.246185,-87.042099,-611.256165
1733469114,5.126435,5.031864,1.405396,0.90103,-0.44957,-7.232536,-24.975327,-86.121994,-610.86731
1733469114,6.364686,5.104288,1.322048,0.631949,-0.397138,-6.964025,-22.046783,-84.84259,-610.371155
1733469114,7.905205,4.795586,0.87538,0.423422,-0.304671,-6.648575,-19.296906,-83.723297,-610.120728
1733469114,9.161113,4.903924,0.398485,0.252235,-0.12069,-6.267555,-16.486877,-82.25676,-609.651672
1733469114,10.178051,5.262455,-0.060603,0.106378,0.120765,-5.845214,-14.20665,-80.953552,-610.273071
1733469114,11.805509,5.539584,-0.446668,0.025074,0.3925,-5.354185,-12.238541,-79.321716,-609.75769
1733469114,13.682713,5.771073,-0.225803,-0.01381,0.480017,-4.778259,-10.84726,-77.900818,-609.595093
1733469114,14.892234,5.648071,0.122703,-0.027589,0.420063,-4.225518,-9.856491,-76.831055,-609.799255
1733469114,15.696835,5.857714,0.10729,-0.031717,0.358183,-3.687806,-8.547028,-75.470291,-609.460815
1733469114,15.997008,6.138733,-0.154576,-0.035008,0.44203,-3.267257,-7.83168,-74.356323,-609.730286
1733469114,16.354043,6.249016,-0.449062,-0.05039,0.66067,-2.915867,-6.989014,-73.340317,-609.361511
1733469114,16.962171,6.781427,-0.265307,-0.040126,0.826215,-2.582999,-6.559662,-72.622086,-609.177612
1733469114,17.360057,7.347506,0.321571,-0.024681,0.929379,-2.337259,-6.379288,-71.92749,-608.740356
1733469114,17.942297,7.641843,1.179893,-0.046011,0.890675,-2.144404,-5.905609,-71.197678,-608.456421
1733469114,18.826057,7.876923,2.060959,-0.071437,0.655065,-1.930786,-5.551407,-70.393738,-608.326782
1733469114,19.561376,8.190265,2.442235,-0.079925,0.384191,-1.716869,-5.337219,-69.818344,-608.127258
1733469114,20.274249,8.669404,2.59741,-0.105813,0.139332,-1.506325,-4.888474,-69.278549,-607.879028
1733469114,21.309592,9.020753,3.011756,-0.165984,-0.211196,-1.198656,-4.463043,-68.823883,-608.166077
1733469114,22.109255,9.337686,2.797924,-0.17637,-0.543031,-0.774614,-4.060257,-68.710083,-607.950256
1733469114,22.4832,9.520693,1.946636,-0.117652,-0.764575,-0.249938,-3.676865,-68.249023,-608.76416
1733469114,22.356756,9.36073,1.308132,-0.051188,-0.876927,0.32078,-3.280136,-68.427994,-608.865234
1733469114,21.766136,9.074473,0.940472,-0.037363,-0.856139,0.900341,-3.354355,-68.727325,-609.281128
1733469114,21.177761,8.78253,0.621744,-0.068439,-0.709129,1.495983,-3.604477,-69.106796,-609.548279
1733469114,20.386178,8.506898,0.441431,-0.138982,-0.487704,2.072074,-4.192734,-69.683426,-609.586243
1733469114,19.423859,8.16752,0.535703,-0.255119,-0.282238,2.604007,-4.405746,-70.685303,-610.303467
1733469114,18.30038,7.832331,0.663942,-0.388689,-0.11989,3.093317,-5.2836,-71.65126,-609.804993
1733469114,17.161488,7.492056,0.70614,-0.53415,0.017419,3.538622,-6.090225,-72.846848,-610.036682
1733469114,15.913211,7.136517,0.672172,-0.667751,0.106885,3.928533,-7.113724,-74.207718,-610.080933
1733469114,14.66269,6.753295,0.497695,-0.733591,0.151437,4.250698,-8.706573,-75.60936,-609.931885
1733469114,13.497162,6.386683,0.247501,-0.709939,0.151595,4.510823,-10.071869,-77.250504,-610.67627
1733469114,12.616545,6.044761,0.399981,-0.635869,0.033307,4.724501,-11.695511,-78.724869,-611.311279
1733469114,11.831247,5.771672,0.831237,-0.534016,-0.207439,4.882957,-13.649734,-80.221771,-611.976501
1733469114,11.171943,5.410447,1.105672,-0.429942,-0.50772,5.032363,-14.992249,-81.445938,-611.597168
1733469114,10.636391,5.06658,1.215207,-0.33276,-0.806491,5.206094,-17.050232,-82.656494,-611.505432
1733469114,10.070611,4.908712,1.141286,-0.22726,-1.073111,5.435685,-19.004913,-83.701538,-612.098755
1733469114,9.552266,4.741118,0.986112,-0.120214,-1.312974,5.716825,-21.04837,-85.035141,-612.783569
1733469114,8.851812,4.582951,0.848146,-0.009078,-1.514967,6.038313,-23.2146,-85.977768,-612.519287
1733469114,7.873631,4.543596,0.618901,0.110203,-1.645777,6.400005,-25.934402,-86.968735,-612.640076
1733469114,6.751948,4.522048,0.373346,0.24107,-1.680727,6.774938,-28.66452,-87.823486,-612.51416
1733469115,5.754314,4.596119,0.37978,0.341788,-1.656895,7.180882,-31.527481,-88.275986,-612.962463
1733469115,4.816086,4.813243,0.482731,0.39604,-1.587038,7.613304,-35.081375,-88.67244,-612.588135
1733469115,3.714454,5.199159,0.461333,0.399471,-1.434224,8.078928,-38.349442,-88.707291,-612.759399
1733469115,2.146551,5.731719,0.401178,0.353925,-1.159481,8.535553,-42.370575,-88.565735,-612.507812
1733469115,0.436942,5.820753,0.503381,0.238574,-0.768423,8.920452,-46.340408,-87.968414,-611.808716
1733469115,-1.017685,5.625775,0.949002,0.028618,-0.37002,9.271862,-50.670578,-86.745682,-611.781067
1733469115,-2.20925,5.763741,1.491288,-0.301363,-0.016426,9.618781,-54.86322,-85.265656,-611.964844
1733469115,-3.594595,6.190059,1.798644,-0.743636,0.366354,9.958369,-59.009155,-83.190735,-612.729797
1733469115,-5.029769,6.599617,1.415123,-1.276395,0.806342,10.270686,-63.067001,-80.495224,-613.668091
1733469115,-6.937947,7.026234,1.209521,-1.792715,1.045184,10.525965,-67.097519,-77.492218,-613.21344
1733469115,-10.090513,7.489212,1.502661,-2.153899,0.813665,10.622672,-70.740158,-74.125854,-615.223328
1733469115,-14.942512,6.785018,1.914763,-2.284283,-0.038078,10.295231,-74.445374,-70.345596,-616.60437
1733469115,-20.707899,3.306542,0.997634,-2.167134,-1.132839,9.340725,-77.226044,-66.594345,-616.474548
1733469115,-26.282798,-1.504905,-2.223016,-1.825097,-1.82616,7.865138,-78.710175,-63.245316,-615.4823
1733469115,-31.239394,-6.043115,-6.894553,-1.334791,-1.813297,6.014997,-79.432907,-60.553741,-615.712402
1733469115,-33.691954,-9.684695,-11.132589,-0.614267,-1.252212,4.140145,-79.489288,-58.756042,-614.32312
1733469115,-32.781259,-10.270527,-12.910134,0.190594,-0.464212,2.694574,-79.752457,-57.432831,-614.491699
1733469115,-30.480731,-8.764424,-10.934469,0.685464,0.215503,1.651858,-79.714844,-56.892136,-613.961487
1733469115,-27.455956,-6.907421,-7.354688,0.762834,0.525606,0.970485,-79.987152,-56.36795,-614.010132
1733469115,-24.693796,-4.980538,-4.355801,0.638225,0.475003,0.610528,-80.095169,-56.09996,-614.852234
1733469115,-23.202208,-4.413561,-1.993472,0.472467,-0.004588,0.353519,-80.25705,-56.028137,-614.132812
1733469115,-22.952164,-5.510854,-1.217601,0.319814,-0.628587,0.014601,-80.571442,-56.035706,-614.329834
1733469115,-23.282564,-7.784896,-2.513014,0.225103,-0.941765,-0.464731,-80.385925,-56.403824,-613.538513
1733469115,-23.444771,-9.953594,-4.644901,0.195113,-0.842452,-1.056124,-80.508286,-56.932281,-613.081238
1733469115,-22.949919,-11.363629,-6.274903,0.218983,-0.435322,-1.686158,-80.133591,-57.778214,-613.498291
1733469115,-21.468507,-11.495011,-6.957999,0.272887,0.090004,-2.227555,-80.008804,-59.021957,-612.799072
1733469115,-19.416377,-10.397868,-6.481852,0.331052,0.554186,-2.624718,-79.523636,-59.928314,-613.692078
1733469115,-17.345991,-8.806472,-5.470152,0.38324,0.852145,-2.85998,-79.03598,-61.424423,-614.105896
1733469115,-15.465346,-7.155969,-4.358046,0.430519,0.980744,-2.93986,-78.43515,-62.736252,-613.844238
1733469115,-14.099603,-6.485593,-3.711761,0.473344,1.029036,-2.97017,-77.929962,-63.877304,-614.999634
1733469115,-13.32448,-6.358551,-3.30759,0.512931,1.042658,-3.022926,-77.412979,-65.370392,-614.456665
1733469115,-13.040019,-6.303035,-2.961029,0.533557,1.048408,-3.149233,-76.838623,-66.712646,-615.564575
1733469115,-12.897714,-6.443994,-2.769493,0.533117,1.095151,-3.352166,-75.677567,-68.229126,-615.981323
1733469115,-12.68059,-6.337901,-2.565088,0.502932,1.103611,-3.603787,-74.617523,-69.862442,-615.820068
1733469115,-12.39972,-6.032939,-2.463185,0.488528,1.085536,-3.904153,-73.73877,-71.302963,-616.483459
1733469115,-11.949012,-5.60722,-2.595315,0.542493,1.068413,-4.219551,-72.386063,-72.981857,-616.431763
1733469115,-11.291953,-5.164892,-2.776825,0.665187,1.067069,-4.539354,-70.889313,-74.65918,-616.923096
1733469115,-10.429891,-4.571878,-2.628534,0.822785,1.053135,-4.825944,-69.470215,-76.222595,-616.820618
1733469115,-9.55077,-3.819649,-2.22152,0.989199,1.014724,-5.076363,-67.332932,-77.865555,-617.00592
1733469115,-8.510489,-3.152116,-1.83725,1.156233,0.966546,-5.299219,-65.46376,-79.722397,-616.382141
1733469115,-7.237672,-2.673425,-1.549497,1.31342,0.911882,-5.507297,-63.393509,-81.108688,-615.499939
1733469115,-5.855469,-2.188151,-1.028459,1.447793,0.776858,-5.669788,-61.418106,-82.468018,-615.63324
1733469115,-4.707,-1.570596,-0.309151,1.523585,0.577027,-5.783915,-58.986908,-83.781677,-615.341309
1733469115,-3.788525,-1.35003,0.272041,1.516394,0.361739,-5.917648,-56.220108,-84.937561,-613.984253
1733469115,-3.254169,-1.323994,0.758812,1.453589,0.139235,-6.079055,-53.847794,-86.042847,-614.014404
1733469115,-2.932298,-1.166425,1.113154,1.351471,-0.029682,-6.274127,-51.016113,-86.795929,-613.31427
1733469115,-2.532916,-0.934038,1.107318,1.232737,-0.113242,-6.502184,-47.974213,-87.510544,-612.722595
1733469115,-1.880196,-0.543633,1.02801,1.136528,-0.149436,-6.719393,-45.079376,-87.871597,-612.243225
1733469115,-0.843058,0.114024,1.1974,1.059707,-0.22117,-6.886621,-41.532486,-88.242996,-610.99646
1733469115,0.45415,1.042675,1.473182,0.983465,-0.351847,-6.937987,-38.246613,-88.376236,-611.554199
1733469115,1.694347,2.169745,1.718438,0.872221,-0.474262,-6.884281,-35.145706,-88.116669,-610.271912
1733469115,2.395249,2.797176,2.08535,0.697756,-0.626158,-6.820249,-32.198196,-87.615677,-609.996338
1733469115,2.471115,2.709189,2.451214,0.437426,-0.745834,-6.853096,-29.012329,-86.94632,-610.751465
1733469115,2.592471,2.240075,2.111387,0.147114,-0.782639,-6.992517,-25.8004,-86.16333,-610.155029
1733469115,3.270928,2.708441,1.626561,-0.058003,-0.770578,-7.081581,-22.986603,-85.087402,-610.680481
1733469115,5.028272,3.951181,1.37502,-0.15553,-0.804412,-6.998884,-19.787399,-84.038116,-610.272522
1733469115,7.379678,5.13242,1.295263,-0.241871,-0.875363,-6.75345,-17.343658,-82.610672,-610.622498
1733469115,10.053702,6.130802,1.396717,-0.354646,-1.016624,-6.351608,-15.032852,-81.039032,-611.69458
1733469115,11.92911,6.636278,1.351676,-0.497239,-1.174641,-5.843632,-15.032852,-81.039032,-611.69458
1733469115,12.592154,6.687305,0.610821,-0.635898,-1.198251,-5.359574,-11.101685,-78.528564,-612.861572
1733469115,12.867188,6.322937,-0.611419,-0.729304,-0.947135,-4.960645,-9.653397,-77.23613,-612.775696
1733469115,13.626599,6.211756,-1.763629,-0.80093,-0.403572,-4.568597,-8.884308,-75.688812,-613.072144
1733469115,14.920665,6.870611,-2.287211,-0.901649,0.320388,-4.1435,-8.039841,-74.493988,-613.54248
1733469115,16.541539,7.432949,-2.068441,-1.025059,0.943402,-3.791174,-7.262131,-73.405457,-612.59845
1733469115,18.782063,7.8039,-1.512537,-1.060026,1.263445,-3.365814,-7.020615,-72.40834,-613.302734
1733469115,21.331289,9.070732,-1.02801,-0.947722,1.24297,-2.834652,-6.838989,-71.735687,-612.566711
1733469115,22.612636,9.577555,-0.556502,-0.720406,0.995273,-2.414207,-6.565247,-70.92691,-613.231689
1733469115,23.258173,9.64968,0.143054,-0.497778,0.567202,-2.141639,-5.941193,-70.148788,-612.835815
1733469115,23.881264,9.683049,0.841263,-0.304087,-0.021448,-1.937966,-5.567123,-69.490707,-613.550293
1733469115,23.986758,10.110265,0.989254,-0.094821,-0.60047,-1.756866,-5.567123,-69.490707,-613.550293
1733469115,24.45258,10.620978,0.782455,0.117143,-1.098505,-1.473866,-4.126724,-68.254227,-613.766785
1733469115,25.429115,10.967838,0.955286,0.277008,-1.665626,-0.955675,-3.192017,-68.198822,-614.577393
1733469115,25.710284,10.89676,0.836624,0.41023,-2.182026,-0.260034,-3.192017,-68.198822,-614.577393
1733469115,24.884135,10.340707,-0.315286,0.510418,-2.387248,0.516078,-3.027206,-68.344254,-615.804565
1733469115,23.429059,9.677513,-1.766921,0.538153,-2.157267,1.323345,-3.027206,-68.344254,-615.804565
1733469115,21.943307,9.222016,-2.570325,0.453807,-1.645386,2.098906,-3.215027,-69.146851,-616.497681
1733469115,20.362386,8.820239,-2.675969,0.269508,-1.012485,2.794814,-4.049545,-69.932983,-616.679016
1733469115,18.599356,8.531588,-2.350059,0.028255,-0.424337,3.364983,-4.686523,-71.171127,-616.98822
1733469115,17.033398,8.191911,-1.894262,-0.234897,0.041485,3.827526,-5.824722,-72.481247,-617.026978
1733469115,15.689054,7.653963,-1.708562,-0.458015,0.375904,4.191105,-7.309006,-73.981003,-617.577698
1733469115,14.373739,7.116166,-1.788169,-0.603486,0.602187,4.468157,-8.603165,-75.570358,-617.046875
1733469115,13.322236,6.654983,-1.707215,-0.683906,0.688272,4.683141,-9.959396,-76.993454,-617.35498
1733469115,12.554745,6.314857,-1.383699,-0.694691,0.571968,4.880119,-11.711288,-78.550629,-618.326843
1733469115,12.027272,5.948394,-0.977433,-0.625563,0.262763,5.070749,-13.52861,-79.807632,-617.809937
1733469115,11.373655,5.660791,-0.712874,-0.49285,-0.120167,5.219027,-15.184082,-81.363113,-617.68689
1733469115,10.708965,5.306,-0.7431,-0.347063,-0.478904,5.357188,-17.318893,-82.37587,-618.481262
1733469115,9.999084,4.996699,-0.946308,-0.1934,-0.743725,5.505148,-19.477722,-83.587189,-618.669861
1733469115,9.24925,4.870854,-1.307833,-0.024261,-0.887443,5.692611,-21.63559,-84.745132,-618.652222
1733469115,8.586056,4.698321,-1.48635,0.145441,-0.97281,5.926686,-24.000534,-85.73378,-619.174744
1733469115,7.739556,4.691887,-1.44086,0.292753,-0.996271,6.189931,-26.665329,-86.858124,-618.272156
1733469115,6.781726,4.75668,-1.378462,0.401415,-0.962467,6.473796,-29.3694,-87.484879,-619.065613
1733469115,5.866991,4.809652,-1.2179,0.470505,-0.900984,6.787527,-32.498337,-88.07962,-618.950378
1733469115,4.92173,5.044284,-1.098789,0.531847,-0.809812,7.14935,-35.285248,-88.506912,-618.385925
1733469115,3.976919,5.348946,-1.060931,0.554344,-0.649391,7.563717,-38.534821,-88.58017,-618.347656
1733469115,2.94412,5.785588,-0.997933,0.490954,-0.377218,8.033945,-42.187714,-88.383362,-618.224182
1733469115,1.662474,6.437859,-0.803404,0.328078,-0.020803,8.525574,-45.794601,-87.796951,-617.248291
1733469115,0.152032,7.512107,-0.565181,0.07273,0.389962,9.067775,-49.830811,-86.935898,-617.772522
1733469115,-1.506851,8.554782,-0.108338,-0.28473,0.769333,9.613856,-54.341171,-85.460083,-618.399902
1733469115,-3.312228,8.777891,0.436792,-0.746236,1.046749,10.061115,-58.590012,-83.535904,-619.089417
1733469115,-5.536142,8.414871,0.569371,-1.241591,1.228503,10.380281,-62.697983,-80.823181,-620.053284
1733469116,-8.0725,7.722647,0.011522,-1.707269,1.46124,10.501414,-66.437958,-77.980362,-621.431519
1733469116,-10.846482,6.765864,-0.677858,-2.099328,1.694063,10.426917,-70.277878,-74.242462,-622.678711
1733469116,-14.336928,5.701342,-0.487519,-2.442729,1.548295,10.010657,-73.805496,-70.659027,-623.481873
1733469116,-17.993922,3.635296,0.210241,-2.694548,0.674771,9.123755,-76.487274,-66.744278,-625.266479
1733469116,-20.947319,1.000926,-0.707487,-2.622122,-0.589634,7.985323,-78.252548,-63.408661,-625.496277
1733469116,-24.394221,-1.945139,-3.753061,-2.123597,-1.585711,6.662695,-79.760437,-60.133316,-625.200439
1733469116,-27.52883,-5.395184,-6.944681,-1.453462,-2.149685,5.118721,-80.367371,-57.953903,-624.812561
1733469116,-28.87497,-7.75437,-8.581567,-0.82195,-2.463725,3.650382,-80.612427,-55.988022,-623.200317
1733469116,-28.294675,-8.221539,-9.020005,-0.366369,-2.489319,2.463255,-80.923843,-54.848877,-621.986938
1733469116,-26.734254,-7.475745,-8.340201,-0.11555,-2.410009,1.61756,-80.556168,-54.100525,-619.908875
1733469116,-24.806323,-5.991639,-7.552509,0.011944,-2.207245,1.173636,-80.475494,-53.483887,-619.251953
1733469116,-23.566277,-4.625149,-7.008876,0.032849,-1.861136,0.990362,-80.566727,-53.128387,-618.67157
1733469116,-23.458986,-4.384531,-6.679224,-0.064319,-1.37883,0.869939,-80.944763,-52.659332,-617.756226
1733469116,-24.054694,-5.237017,-6.983437,-0.261526,-0.756358,0.672293,-80.931503,-52.159149,-617.616699
1733469116,-24.891318,-6.545897,-7.899818,-0.474165,0.038792,0.33101,-81.352997,-52.168777,-618.139771
1733469116,-25.289802,-8.306084,-9.284265,-0.614398,0.956591,-0.166971,-81.324646,-52.411591,-619.033875
1733469116,-24.801535,-9.589376,-10.078093,-0.612826,1.724003,-0.736081,-81.536819,-52.848236,-620.184204
1733469116,-23.390153,-9.711032,-9.846005,-0.438809,2.092557,-1.309605,-81.347702,-53.670975,-621.500549
1733469116,-21.58283,-8.948478,-8.909423,-0.15032,2.010556,-1.856822,-81.446442,-54.661545,-621.550049
1733469116,-19.692608,-7.734319,-7.787291,0.207454,1.5824,-2.301862,-81.03157,-55.784317,-622.685913
1733469116,-17.984794,-6.577471,-7.066187,0.574328,1.04919,-2.639213,-80.406906,-57.136017,-623.501831
1733469116,-16.800263,-5.934927,-6.723068,0.871703,0.601153,-2.917832,-79.859177,-58.36554,-623.141602
1733469116,-16.152781,-5.528212,-6.525696,1.043603,0.396222,-3.172531,-79.340942,-59.928223,-622.809631
1733469116,-15.807268,-5.24824,-6.414964,1.085778,0.473424,-3.428377,-78.756226,-61.544647,-622.918884
1733469116,-15.532383,-4.827309,-6.245574,1.049204,0.759678,-3.692995,-77.774246,-63.222885,-622.841125
1733469116,-15.008053,-4.370166,-6.161927,1.027392,1.171312,-3.946126,-76.86763,-65.171799,-623.557068
1733469116,-14.270938,-3.972878,-5.867889,1.05574,1.583578,-4.194721,-75.659546,-66.926575,-623.446289
1733469116,-13.43222,-3.820098,-5.255123,1.124693,1.840021,-4.465527,-74.57782,-68.921997,-624.258606
1733469116,-12.447155,-3.670162,-4.53776,1.240956,1.924015,-4.760159,-73.112808,-70.89624,-624.374756
1733469116,-11.502194,-3.145532,-3.851971,1.396701,1.850475,-5.067066,-71.455872,-73.213211,-624.632141
1733469116,-10.546009,-2.542044,-3.230975,1.580156,1.697681,-5.367109,-69.565948,-75.136703,-624.747803
1733469116,-9.491064,-1.959205,-2.669684,1.781939,1.473284,-5.641282,-67.606232,-77.219559,-624.492676
1733469116,-8.388086,-1.338359,-2.196081,1.992566,1.217407,-5.896379,-65.173508,-79.223114,-624.083252
1733469116,-7.297227,-0.804302,-1.716643,2.205538,0.959573,-6.126216,-62.691116,-81.043472,-623.729919
1733469116,-6.219986,-0.27683,-1.192462,2.392852,0.719957,-6.343091,-60.114594,-82.680008,-622.704041
1733469116,-5.352836,0.079458,-0.470012,2.493653,0.449789,-6.56328,-57.447983,-84.153061,-621.734253
1733469116,-4.636671,0.361973,0.220267,2.487393,0.197933,-6.79277,-54.540741,-85.565247,-620.510864
1733469116,-3.765032,0.678756,0.573411,2.408718,-0.007956,-7.006357,-51.408585,-86.876144,-619.370911
1733469116,-2.722806,1.208773,0.781856,2.262465,-0.187633,-7.184902,-48.131622,-87.798889,-617.440796
1733469116,-1.731457,1.867926,0.9909,2.076185,-0.399129,-7.32518,-44.701981,-88.200882,-616.957275
1733469116,-1.04477,2.524237,1.046565,1.911169,-0.594899,-7.445777,-41.373169,-88.514648,-616.416382
1733469116,-0.281468,2.91105,0.729483,1.809822,-0.73716,-7.600019,-37.823761,-88.754074,-615.406006
1733469116,0.872986,3.320309,0.295983,1.740277,-0.793846,-7.72365,-34.144943,-88.460083,-614.740417
1733469116,2.569278,4.332158,0.136918,1.689199,-0.851461,-7.720374,-30.415817,-87.843033,-614.012756
1733469116,4.655525,5.473145,0.333393,1.623122,-0.942298,-7.532344,-27.434845,-86.76355,-613.177673
1733469116,6.871658,6.22672,0.464475,1.472942,-0.958317,-7.170069,-24.532837,-85.835815,-612.676331
1733469116,9.113379,6.563105,0.499939,1.239499,-0.843374,-6.713701,-21.601746,-84.767593,-612.241211
1733469116,11.771392,6.696582,0.939126,0.949324,-0.712618,-6.106178,-19.443619,-83.561295,-611.883911
1733469116,14.006229,6.166416,2.160168,0.162648,-0.68253,-4.828033,-17.485367,-82.613327,-611.294312
1733469116,14.262559,5.503671,1.002722,-0.196658,-0.300351,-4.30665,-15.923508,-81.408417,-612.177856
1733469116,14.479234,5.235371,-0.345364,-0.496898,0.359004,-3.880379,-14.675858,-80.583008,-612.437744
1733469116,15.010148,5.280561,-1.069011,-0.715808,1.137793,-3.564112,-13.872116,-79.932404,-612.709167
1733469116,15.010148,5.280561,-1.069011,-0.835526,1.763255,-3.333569,-13.25206,-78.951508,-613.001343
1733469116,17.345243,6.082769,-0.038307,-0.8723,2.145549,-3.195194,-12.529861,-77.999008,-612.260193
1733469116,18.926613,6.389675,1.0322,-0.819472,2.151439,-3.070031,-11.853745,-77.290482,-612.072693
1733469116,20.043658,6.66007,2.37011,-0.686041,1.693628,-2.927656,-10.806229,-76.372971,-611.679993
1733469116,20.520403,6.849512,2.925415,-0.454317,1.007522,-2.776307,-10.160751,-75.653778,-611.68396
1733469116,21.118205,7.186196,3.230377,-0.454317,1.007522,-2.776307,-9.155945,-74.750748,-611.213318
1733469116,21.678897,7.360374,3.59639,0.092749,-0.885671,-2.233083,-8.480545,-73.720657,-611.677795
1733469116,21.522227,7.27134,2.825308,0.30074,-1.597251,-1.877823,-7.583908,-73.209091,-612.075867
1733469116,20.910059,6.931363,0.956633,0.441199,-1.704153,-1.521637,-6.520615,-72.55249,-612.106934
1733469116,21.142297,7.674913,0.210839,0.464878,-1.535084,-1.006535,-6.00206,-72.230606,-612.39325
1733469116,21.402517,7.79597,0.327856,0.376293,-1.26007,-0.494039,-5.856567,-71.781525,-612.752686
1733469116,21.458032,7.206697,0.62773,0.20663,-1.024051,0.036185,-5.712112,-71.682495,-613.030945
1733469116,21.440525,7.095516,0.788141,0.002895,-0.832247,0.598773,-5.435699,-71.800217,-613.048096
1733469116,21.060595,7.288848,0.52433,-0.161835,-0.644042,1.203706,-5.630081,-72.219818,-613.393066
1733469116,20.586543,7.471256,0.316633,-0.259958,-0.541493,1.832446,-6.27681,-72.813492,-613.610107
1733469116,20.293253,7.449858,0.660051,-0.298857,-0.671562,2.482352,-6.639481,-73.653778,-613.980957
1733469116,19.531448,7.445668,0.689081,-0.29195,-0.861419,3.110138,-7.372665,-74.569412,-614.814453
1733469116,17.976564,7.264008,0.019453,-0.233019,-0.909346,3.624169,-8.502213,-75.782669,-615.022949
1733469116,16.332496,6.866421,-0.433201,-0.16106,-0.890311,4.052289,-9.6185,-77.019104,-615.485474
1733469116,14.915427,6.34628,-0.480486,-0.114693,-0.862455,4.409955,-11.104919,-78.477173,-615.58136
1733469116,13.530082,5.870283,-0.459238,-0.099816,-0.818897,4.706951,-12.475891,-79.865982,-615.629517
1733469116,12.279411,5.509357,-0.461033,-0.098684,-0.775456,4.970734,-14.265686,-80.826599,-616.30481
1733469116,11.169699,5.166238,-0.447716,-0.098944,-0.750684,5.20589,-16.079529,-82.451965,-616.935059
1733469116,10.149619,4.841076,-0.469114,-0.083671,-0.754326,5.412716,-18.472443,-83.429062,-616.53772
1733469116,9.251046,4.566341,-0.490512,-0.041514,-0.796326,5.603619,-20.472275,-84.843643,-616.880005
1733469116,8.195053,4.176535,-0.651522,0.036964,-0.808497,5.736048,-23.17894,-85.726135,-617.074585
1733469116,7.42397,3.824139,-0.636558,0.13931,-0.88277,5.883894,-25.472244,-86.617477,-617.439575
1733469116,6.820332,3.684377,-0.466869,0.259335,-1.024976,6.074729,-27.901657,-87.561325,-617.369629
1733469116,5.930737,3.680038,-0.383521,0.381485,-1.167389,6.282269,-30.833298,-88.177582,-617.010132
1733469116,4.809203,3.725827,-0.210989,0.498129,-1.291324,6.514265,-33.630615,-88.855377,-617.057251
1733469116,3.593846,3.732411,-0.100108,0.59,-1.337385,6.751767,-36.537598,-89.004425,-617.097961
1733469116,2.277484,3.532944,0.05372,0.612666,-1.268358,6.986598,-39.612,-88.856842,-616.463379
1733469116,1.069161,3.512144,0.252139,0.524665,-1.040576,7.23361,-43.163864,-88.658691,-616.330383
1733469116,-0.168193,3.637541,0.380528,0.302495,-0.658459,7.450309,-46.632431,-88.180084,-616.004028
1733469116,-0.999729,3.651906,0.36317,-0.01912,-0.225006,7.657385,-50.062119,-87.463867,-615.734436
1733469116,-1.510891,4.010437,0.096367,-0.322727,0.133028,7.923594,-53.667404,-86.180038,-615.659912
1733469116,-2.244265,4.651335,-0.818667,-0.518284,0.488559,8.238791,-57.117584,-84.745255,-616.32666
1733469116,-3.630807,4.692336,-2.121263,-0.584577,0.991311,8.558024,-60.307968,-82.866699,-617.166809
1733469116,-6.068403,3.948039,-3.066224,-0.646622,1.757085,8.777466,-64.2444,-80.623245,-617.895142
1733469116,-8.595783,2.559252,-3.044078,-0.869155,2.646322,8.792061,-67.985992,-77.913254,-619.349243
1733469116,-10.095151,0.959626,-1.600673,-1.350172,3.158257,8.587736,-70.927322,-75.243759,-620.887634
1733469116,-11.324873,0.45026,1.211316,-1.907937,2.569565,8.196908,-73.735992,-72.194077,-622.327271
1733469116,-13.153445,0.896479,3.186982,-2.183989,0.855291,7.633111,-75.945343,-69.259842,-623.516663
1733469116,-14.195521,0.828693,2.489521,-1.86632,-1.358604,7.115661,-77.215851,-66.123795,-622.733887
1733469116,-14.986805,1.154454,0.092925,-1.083349,-3.363399,6.876474,-78.137222,-63.058136,-621.450012
1733469116,-17.212814,1.792958,-1.905336,-0.250184,-4.614068,6.782319,-79.563293,-59.796814,-618.490662
1733469116,-20.144813,0.899771,-2.821866,0.262119,-4.95531,6.596727,-80.420654,-56.457306,-616.682129
1733469116,-22.807315,-0.512658,-3.027019,0.356414,-4.50339,6.354507,-80.75264,-53.365921,-614.645386
1733469117,-26.076148,-2.611326,-3.735553,0.038117,-3.305276,5.895014,-81.64035,-50.62532,-613.322754
1733469117,-30.165445,-6.169558,-4.69488,-0.60563,-1.762665,4.977901,-82.505432,-48.436066,-612.418457
1733469117,-33.890074,-9.584887,-5.266495,-1.251633,-0.502592,3.610336,-82.606171,-46.869339,-612.487061
1733469117,-35.362807,-11.403433,-6.785018,-1.497941,0.39496,2.153967,-82.835999,-46.090805,-612.986816
1733469117,-34.076074,-11.442638,-8.523508,-1.258046,0.908297,0.879784,-83.009338,-45.692932,-613.480103
1733469117,-31.499613,-9.611822,-8.697985,-0.764325,0.934391,-0.111755,-82.89296,-46.011932,-613.752075
1733469117,-28.571056,-7.388656,-7.879018,-0.237931,0.671745,-0.799673,-82.857346,-46.466797,-614.270569
1733469117,-25.591921,-6.202329,-7.167791,0.159489,0.366512,-1.240063,-82.842026,-47.021484,-613.695923
1733469117,-23.358879,-5.728427,-6.554127,0.348369,0.187407,-1.533901,-83.13562,-47.734665,-614.255798
1733469117,-21.719,-5.984457,-6.481104,0.376249,0.250242,-1.777194,-83.023987,-48.774719,-614.038086
1733469117,-20.437354,-6.638523,-6.720524,0.332288,0.46477,-2.009226,-82.871704,-49.789246,-614.990906
1733469117,-19.579033,-6.71394,-6.804321,0.294231,0.719455,-2.249458,-82.561066,-50.955566,-615.588013
1733469117,-19.071762,-6.08202,-6.808212,0.311334,0.96102,-2.493222,-82.404739,-52.304642,-616.144653
1733469117,-18.790892,-5.448305,-6.734291,0.385149,1.148736,-2.764925,-82.147491,-53.819214,-616.400024
1733469117,-18.491317,-5.014206,-6.503998,0.513442,1.237005,-3.070567,-81.674896,-55.11972,-616.74762
1733469117,-18.299033,-4.626196,-6.275951,0.69347,1.27686,-3.423264,-81.337738,-56.875366,-617.485107
1733469117,-17.996166,-4.349067,-5.940164,0.899613,1.291269,-3.826019,-80.514984,-59.057999,-618.468567
1733469117,-17.401207,-3.950133,-5.292981,1.079193,1.270593,-4.244499,-79.621353,-60.955017,-618.52124
1733469117,-16.536452,-3.396624,-4.511723,1.217354,1.243896,-4.64203,-78.855057,-63.073563,-618.666077
1733469117,-15.439758,-2.678812,-3.768324,1.298851,1.260017,-4.998902,-77.910706,-65.475342,-618.300171
1733469117,-14.122947,-2.070536,-3.12593,1.332945,1.315265,-5.312752,-77.910706,-65.475342,-618.300171
1733469117,-12.731616,-1.597232,-2.549226,1.354131,1.384151,-5.572399,-76.493408,-67.756668,-618.868774
1733469117,-11.409119,-1.04462,-2.057068,1.382076,1.456206,-5.789319,-74.650436,-70.113846,-619.188721
1733469117,-10.086173,-0.591218,-1.55683,1.423445,1.493469,-5.992534,-73.199982,-72.357559,-619.427124
1733469117,-8.72058,-0.402376,-0.941221,1.462182,1.421895,-6.174573,-71.293365,-74.575989,-619.003723
1733469117,-7.498041,-0.127491,-0.333393,1.48733,1.260097,-6.351659,-69.297195,-76.662781,-619.223145
1733469117,-6.456563,0.035614,0.168193,1.502533,1.026558,-6.543856,-66.815475,-78.891006,-619.340576
1733469117,-5.66932,0.185401,0.512808,1.512441,0.779006,-6.770891,-64.352631,-80.921768,-618.829041
1733469117,-4.969614,0.515202,0.672471,1.529262,0.52547,-7.003836,-61.673157,-82.725845,-618.629028
1733469117,-4.333505,1.222838,0.929698,1.552185,0.246903,-7.19775,-58.532303,-84.17421,-617.933655
1733469117,-3.793313,1.991527,1.103577,1.557456,-0.003139,-7.377136,-55.26001,-85.685974,-616.87146
1733469117,-3.072509,2.362778,1.061978,1.55741,-0.208908,-7.565328,-52.132645,-86.809204,-616.342285
1733469117,-1.978808,2.85733,0.90845,1.548656,-0.35884,-7.674763,-48.316147,-87.491714,-615.466003
1733469117,-0.667533,3.597288,0.79712,1.508987,-0.449934,-7.699525,-45.04068,-88.335403,-614.61438
1733469117,0.486921,3.86499,0.822708,1.425972,-0.498076,-7.699932,-41.362701,-88.70224,-613.968994
1733469117,1.453729,3.946692,1.033098,1.278366,-0.507825,-7.712455,-37.818527,-88.818192,-612.985352
1733469117,2.728642,4.567538,1.375469,1.07074,-0.524415,-7.640611,-34.039093,-88.387741,-612.786194
1733469117,4.138078,5.635801,1.653944,0.818578,-0.471691,-7.461276,-30.882568,-87.848663,-612.22876
1733469117,5.419425,6.025008,1.637185,0.532262,-0.323233,-7.286824,-27.661942,-87.065491,-611.999023
1733469117,6.987029,6.089951,1.503259,0.279467,-0.13764,-7.029211,-24.45932,-86.181732,-611.428345
1733469117,8.986935,6.645406,1.70931,0.074092,-0.045838,-6.636817,-21.991043,-84.99472,-610.799377
1733469117,11.352855,7.176171,2.058415,-0.114831,-0.07588,-6.140974,-19.218903,-83.803574,-611.916382
1733469117,13.402891,7.071125,1.818995,-0.295378,-0.047151,-5.616992,-17.240189,-82.484177,-612.109436
1733469117,15.340697,7.04823,1.030853,-0.442425,0.146913,-5.002617,-15.230637,-81.127182,-611.931213
