SamplingTime, AccelerationX, AccelerationY, AccelerationZ, GyroX, GyroY, GyroZ, MagneticFieldX, MagneticFieldY, MagneticFieldZ
1733469060,7.502381,-6.923433,-0.359878,-0.078565,0.182628,-0.198278,-24.889618,-84.916382,-609.801453
1733469060,7.140108,-7.04838,-0.372897,0.03903,0.158281,-0.237408,-24.93869,-84.683838,-609.568787
1733469060,6.682366,-7.279121,-0.563386,0.130107,0.259935,-0.27715,-24.486679,-84.562744,-610.011719
1733469060,6.605303,-7.449259,-0.661099,0.301511,0.243601,-0.331502,-24.63121,-84.533035,-610.073303
1733469060,6.39611,-7.804798,-0.252738,0.415152,0.220729,-0.397406,-24.274719,-84.528687,-609.673096
1733469060,6.162675,-7.708731,0.069432,0.45852,0.225246,-0.472175,-24.221176,-84.315811,-609.222046
1733469060,5.876418,-7.354688,0.584036,0.454362,0.183068,-0.582385,-24.061508,-84.308563,-609.199707
1733469060,5.454889,-7.550564,1.032948,0.427679,0.150537,-0.73636,-23.793839,-84.030563,-608.426392
1733469060,5.141099,-7.557746,1.135899,0.363798,0.155192,-0.90147,-23.653717,-83.883469,-608.4422
1733469060,5.169081,-7.299771,1.10253,0.311996,0.144682,-1.036393,-23.200821,-83.83667,-608.007629
1733469060,5.517587,-6.997204,0.880318,0.331666,0.13328,-1.119016,-22.651932,-83.483261,-607.653198
1733469060,5.940763,-6.721721,0.402525,0.401323,0.139866,-1.164704,-22.22261,-83.401215,-608.333252
1733469060,6.226121,-6.455666,0.007931,0.498461,0.154412,-1.192948,-21.568298,-82.988129,-607.48645
1733469060,6.463147,-6.15639,-0.164003,0.600763,0.144215,-1.209447,-21.201706,-82.557465,-607.620239
1733469060,6.570737,-6.01199,-0.224756,0.70282,0.181388,-1.240182,-20.68219,-82.43306,-606.634583
1733469060,6.43741,-5.883152,-0.239869,0.770252,0.207765,-1.3137,-20.227325,-81.976151,-606.444702
1733469060,6.144719,-5.654356,0.122404,0.820604,0.182321,-1.416147,-19.672577,-81.633469,-606.497131
1733469060,6.01184,-5.394286,0.460285,0.87923,0.110392,-1.526452,-19.038513,-81.282303,-605.575867
1733469060,6.09474,-5.0377,0.6813,0.949517,-0.027424,-1.624082,-18.433517,-80.862289,-606.428589
1733469060,6.164321,-4.619762,0.866701,1.018893,-0.171328,-1.729143,-17.933304,-80.56546,-605.014709
1733469060,6.25156,-4.427328,0.823007,1.065964,-0.235599,-1.846775,-17.157394,-79.738831,-605.156128
1733469060,6.451326,-4.061464,0.546776,1.117416,-0.20554,-1.940105,-16.211868,-79.052811,-604.315308
1733469060,6.979846,-3.434782,0.376339,1.156212,-0.119997,-1.963095,-15.495331,-78.49437,-604.22821
1733469060,7.581838,-2.754679,0.450559,1.168216,-0.02108,-1.957077,-14.905807,-77.887009,-603.7854
1733469060,7.963115,-2.168249,0.838569,1.122766,0.048911,-1.959492,-14.150803,-77.182343,-602.815796
1733469060,8.430283,-1.715445,1.398064,1.033549,0.051434,-1.942221,-13.645706,-76.513855,-602.200317
1733469060,9.090933,-1.206378,1.870919,0.941779,-0.018904,-1.873976,-13.037689,-75.850082,-602.843872
1733469060,9.714174,-0.724695,2.030283,0.884432,-0.085336,-1.810353,-12.580261,-75.366898,-601.941406
1733469060,10.077793,-0.223259,1.954267,0.838174,-0.120173,-1.759319,-11.978256,-74.853973,-602.242371
1733469060,10.38485,0.300472,1.900547,0.796697,-0.100738,-1.71946,-11.477341,-74.318909,-601.629761
1733469060,10.737845,0.864307,1.968183,0.738751,-0.082084,-1.685071,-10.955673,-73.604889,-601.092651
1733469060,11.142615,1.563264,2.344971,0.647573,-0.080708,-1.673324,-10.79071,-72.892899,-601.323914
1733469061,11.501745,2.241721,2.689137,0.553862,-0.063548,-1.696137,-10.278427,-72.519943,-600.80481
1733469061,11.825411,3.075053,2.728342,0.504308,-0.046267,-1.746808,-10.162399,-71.90683,-601.102234
1733469061,12.602479,3.934422,2.754679,0.5136,-0.115806,-1.755921,-9.471695,-71.301895,-600.916748
1733469061,13.892654,4.8725,2.922572,0.585066,-0.281291,-1.668573,-9.216583,-70.732971,-600.319214
1733469061,15.461305,6.015282,3.172018,0.66573,-0.584361,-1.409966,-8.246643,-70.123611,-601.220764
1733469061,17.391182,7.017854,3.529951,0.75967,-0.927646,-0.982789,-8.112839,-69.630829,-600.00238
1733469061,18.85359,7.928249,3.4065,0.838154,-1.179356,-0.435583,-7.400833,-69.540176,-600.90564
1733469061,19.825935,8.597728,3.168876,0.853446,-1.322563,0.210498,-7.330643,-69.226929,-601.22052
1733469061,20.225318,8.943091,2.895488,0.821894,-1.221123,0.877811,-7.158386,-69.430237,-600.460571
1733469061,19.16334,9.358934,2.818125,0.688033,-0.944723,1.536743,-7.607208,-69.749069,-600.891846
1733469061,18.164958,9.290849,3.46037,0.449947,-0.690984,2.145475,-7.952209,-70.514923,-600.424561
1733469061,16.92536,8.973019,3.845986,0.1776,-0.485083,2.660341,-8.611038,-71.436737,-601.093933
1733469061,15.767763,8.689605,4.143914,-0.078954,-0.399622,3.099071,-9.532898,-72.41214,-601.1875
1733469061,14.758607,8.309675,4.077325,-0.272267,-0.413156,3.464226,-10.15892,-73.700287,-601.188599
1733469061,14.11726,8.032547,3.915418,-0.364155,-0.550476,3.790124,-11.379974,-74.75354,-601.875244
1733469061,13.680768,7.873781,3.84823,-0.329574,-0.845997,4.079222,-12.456772,-76.129364,-601.913208
1733469061,13.600562,7.880215,3.659687,-0.210294,-1.235067,4.390763,-13.904877,-77.482758,-603.031921
1733469061,13.462446,7.639748,3.079841,-0.065509,-1.552143,4.772518,-15.228149,-78.82019,-603.303345
1733469061,13.127557,7.483825,2.627038,0.081127,-1.717137,5.200731,-16.318695,-80.069794,-602.981995
1733469061,12.898761,7.496694,2.418593,0.170054,-1.781122,5.748011,-18.348434,-81.300339,-604.648071
1733469061,12.075156,7.494599,2.284817,0.237875,-1.773178,6.376334,-20.358429,-82.613388,-603.67804
1733469061,10.961703,7.548768,2.299631,0.287489,-1.694011,7.028427,-23.167572,-83.998627,-604.501709
1733469061,9.639654,7.617452,2.507178,0.310467,-1.600968,7.703328,-26.208588,-85.072174,-604.682129
1733469061,7.968202,7.788338,2.684349,0.296835,-1.457196,8.336718,-29.488327,-85.893478,-604.605103
1733469061,7.968202,7.788338,2.684349,0.2424,-1.337894,8.960959,-33.367798,-86.649277,-604.649109
1733469061,4.060117,8.795848,3.420267,0.209607,-1.250618,9.539325,-37.384125,-87.060928,-604.902649
1733469061,1.714248,9.180566,3.616292,0.163569,-1.137859,10.049673,-41.482712,-87.078537,-604.181458
1733469061,-1.446846,9.648483,3.900903,0.065173,-0.908126,10.566106,-46.274597,-86.215942,-604.468811
1733469061,-4.696077,9.301473,4.258985,-0.243388,-0.556711,10.902979,-50.662231,-85.046249,-604.645508
1733469061,-6.968922,9.759215,3.736002,-0.75668,-0.155917,11.169452,-55.251648,-83.257858,-604.319702
1733469061,-9.915586,10.691906,2.38238,-1.265611,0.272186,11.484002,-59.440933,-80.913101,-605.574585
1733469061,-15.154249,10.00477,0.353294,-1.653682,0.67424,11.658714,-64.257355,-78.21524,-606.704834
1733469061,-22.395213,5.798607,-2.576909,-1.891845,1.399789,11.289962,-68.995773,-74.847107,-607.563843
1733469061,-28.596195,-0.544681,-5.100847,-2.145161,2.454568,10.106946,-72.263596,-71.689133,-609.992676
1733469061,-32.645089,-5.464616,-6.268469,-2.408539,3.316628,8.383631,-75.14534,-68.995819,-612.510193
1733469061,-34.813189,-9.10485,-6.054188,-2.390176,3.27787,6.320442,-77.164032,-66.95108,-614.358032
1733469061,-34.655919,-11.117475,-5.775563,-1.835122,2.088115,4.146664,-77.600922,-65.803101,-614.471741
1733469061,-32.118215,-11.220426,-5.903203,-0.778737,0.088684,2.266964,-77.097214,-64.95311,-614.127441
1733469061,-28.452094,-11.123611,-6.406584,0.46992,-1.998693,0.957253,-76.506668,-64.580185,-612.693726
1733469061,-25.464579,-11.188104,-7.124396,1.434583,-3.394432,0.172549,-75.644012,-64.226028,-610.813782
1733469061,-23.476494,-11.32637,-7.591565,1.932077,-3.672323,-0.184544,-75.145615,-64.252457,-607.816528
1733469061,-22.091448,-11.949161,-7.303063,1.911914,-2.89717,-0.251431,-75.443832,-64.082245,-607.22821
1733469061,-21.421222,-12.881104,-6.257096,1.386699,-1.450403,-0.224913,-75.302429,-64.253021,-607.015503
1733469061,-21.191977,-13.808408,-5.175217,0.633122,0.241915,-0.267631,-75.860489,-64.431412,-607.845215
1733469061,-20.866365,-14.449007,-4.239084,-0.053272,1.674808,-0.46047,-76.349762,-64.866608,-608.766968
1733469061,-20.124761,-14.603134,-3.680487,-0.509339,2.623058,-0.776932,-76.513733,-65.501022,-610.001465
1733469061,-19.043031,-14.180408,-3.200599,-0.684232,2.955889,-1.165195,-76.512848,-66.21582,-611.880127
1733469061,-17.633894,-13.137134,-2.906262,-0.564917,2.7156,-1.546207,-76.189957,-66.989227,-612.753418
1733469061,-16.251392,-12.161796,-2.734178,-0.239205,2.121023,-1.885402,-76.034302,-67.97525,-613.915466
1733469061,-15.308825,-11.529577,-2.61791,0.112766,1.418983,-2.217662,-75.402054,-68.73999,-613.737
1733469061,-14.642788,-10.754305,-2.679112,0.398839,0.826769,-2.541703,-74.537155,-69.940323,-614.33667
1733469061,-13.999496,-9.929203,-2.895188,0.588783,0.495425,-2.84458,-73.504318,-71.077957,-613.52002
1733469061,-13.126061,-9.143456,-3.02672,0.693493,0.416185,-3.11252,-72.626938,-72.071259,-614.028748
1733469061,-12.228834,-8.216152,-2.916886,0.740339,0.505764,-3.318362,-71.655502,-73.450333,-613.839661
1733469061,-11.428722,-7.702745,-2.735675,0.764208,0.711382,-3.498097,-70.764282,-74.735352,-613.930603
1733469061,-10.507852,-7.311443,-2.359935,0.755394,0.988424,-3.684043,-69.365433,-75.842346,-614.03009
1733469061,-9.585635,-6.517615,-1.737442,0.711548,1.241963,-3.846993,-68.211304,-77.194626,-614.33252
1733469061,-8.703821,-5.75611,-1.158195,0.677309,1.408903,-3.985308,-66.664734,-78.667419,-614.604553
1733469061,-7.744644,-5.242703,-0.516549,0.682301,1.449935,-4.136857,-64.971848,-79.941345,-614.688354
1733469061,-6.699575,-4.757578,0.069881,0.728959,1.353,-4.2983,-63.646729,-81.074646,-614.782837
1733469061,-5.675455,-4.205415,0.636558,0.79648,1.126334,-4.451251,-61.904526,-82.282043,-614.360107
1733469061,-4.879533,-3.638438,0.961871,0.859318,0.790048,-4.587959,-60.28067,-83.226898,-614.430908
1733469061,-4.243722,-3.251176,0.82151,0.928653,0.47681,-4.732282,-57.813629,-84.373169,-613.934937
1733469061,-3.590704,-2.870498,0.648829,1.006761,0.232538,-4.877923,-55.792389,-85.050201,-613.38208
1733469061,-2.954146,-2.522291,0.680402,1.062455,0.044324,-5.012248,-53.653229,-85.971069,-612.984741
1733469061,-2.43191,-2.287061,0.736965,1.048054,-0.114371,-5.148653,-51.436172,-86.469986,-611.749329
1733469061,-2.020557,-2.120664,0.685939,0.984715,-0.271429,-5.318811,-48.853897,-87.007202,-611.892456
1733469061,-1.475876,-1.630601,0.397886,0.930625,-0.363435,-5.504204,-46.282028,-87.381149,-611.301086
1733469061,-0.744148,-0.831835,0.319177,0.889223,-0.387371,-5.647933,-46.282028,-87.381149,-611.301086
1733469061,0.05372,-0.212485,0.36332,0.850177,-0.380374,-5.728959,-41.049347,-87.967682,-610.256653
1733469061,0.749984,0.081852,0.387412,0.800731,-0.314968,-5.783403,-41.049347,-87.967682,-610.256653
1733469061,1.174655,0.271892,0.594361,0.725849,-0.219946,-5.855659,-38.354004,-87.886993,-610.226196
1733469061,1.80463,0.750133,0.866551,0.644376,-0.145357,-5.953718,-35.728928,-87.701141,-610.203125
1733469061,2.780865,1.365892,1.028609,0.53847,-0.100074,-6.023902,-32.828705,-87.363907,-609.288757
1733469061,3.80723,1.963545,0.939425,0.425225,-0.037928,-6.016795,-30.28421,-86.865677,-609.513123
1733469061,4.869058,2.490868,0.959027,0.338662,0.061914,-5.969018,-27.67041,-86.138611,-609.040283
1733469061,5.978471,2.979883,1.446996,0.256967,0.08462,-5.87946,-25.446075,-85.358383,-608.559204
1733469061,7.305457,3.215263,2.035221,0.156795,-0.094697,-5.750662,-22.984009,-84.388824,-609.0979
1733469061,8.412327,3.44795,1.908927,0.052329,-0.375282,-5.578434,-20.860214,-83.273163,-609.130859
1733469061,9.194333,3.618686,1.218948,-0.030826,-0.554266,-5.390842,-18.826447,-82.330673,-608.922852
1733469061,10.119542,3.866187,0.264859,-0.129461,-0.54081,-5.223356,-16.75914,-80.980835,-609.154785
1733469061,11.463288,4.594174,-0.726939,-0.200476,-0.307123,-4.952361,-14.825043,-79.908401,-609.695435
1733469061,12.589012,5.033809,-1.203984,-0.188315,-0.02857,-4.597696,-13.161545,-78.775757,-609.301636
1733469061,13.813346,5.108029,-1.353173,-0.14628,0.196064,-4.203944,-11.935074,-77.461563,-609.535889
1733469061,14.962863,5.210681,-1.357363,-0.040376,0.320422,-3.783541,-10.959915,-76.651138,-609.283936
1733469061,15.594932,5.026626,-0.955885,0.138317,0.353593,-3.420966,-10.186615,-75.660034,-609.470947
1733469061,16.23568,5.196465,-0.057162,0.251043,0.318768,-3.130623,-9.415176,-74.591293,-609.464111
1733469061,16.833183,5.918167,0.639252,0.244647,0.327593,-2.897259,-8.757309,-73.744644,-609.275818
1733469061,17.758093,6.309619,1.125724,0.162727,0.435942,-2.768605,-8.261917,-72.860397,-608.986145
1733469061,19.511397,6.926276,2.026243,0.054558,0.449399,-2.636386,-7.848984,-71.945358,-608.755859
1733469061,21.340268,7.781754,2.732832,-0.047115,0.200214,-2.39992,-7.104355,-71.296829,-609.002563
1733469061,22.599169,8.352322,2.609829,-0.08829,-0.207026,-2.035157,-6.683167,-70.577499,-608.671875
1733469061,23.451953,8.66686,1.820192,-0.064646,-0.53605,-1.58039,-6.067368,-69.853165,-608.901978
1733469061,24.008755,8.256404,1.224634,-0.041382,-0.711612,-1.09195,-4.961533,-69.40654,-608.728638
1733469061,24.754399,9.298181,0.898424,-0.092057,-0.717794,-0.422407,-5.465805,-69.379349,-609.168579
1733469061,24.768315,9.656264,0.427066,-0.175181,-0.510516,0.344782,-5.441193,-69.238876,-609.242188
1733469061,24.144626,8.680328,0.426018,-0.235773,-0.313915,1.067788,-5.588654,-69.709061,-609.704956
1733469061,23.172879,8.77849,0.601992,-0.306339,-0.105589,1.755262,-6.104568,-70.340088,-609.930481
1733469061,21.757308,8.178593,0.855029,-0.415422,0.059476,2.347104,-6.779633,-71.331207,-610.001038
1733469061,20.130298,7.555951,0.816722,-0.53132,0.191969,2.849995,-7.317764,-72.589752,-610.093262
1733469062,18.397345,7.220164,0.739808,-0.613922,0.343414,3.23074,-8.424789,-73.677078,-610.327637
1733469062,17.030405,6.711396,0.992097,-0.683434,0.412163,3.514223,-9.485535,-74.71637,-609.988098
1733469062,15.842432,6.374861,1.133056,-0.705035,0.364944,3.718351,-10.710678,-75.990204,-610.389648
1733469062,14.858416,6.149208,1.263091,-0.655575,0.224264,3.890541,-11.860153,-77.365204,-610.587769
1733469062,14.185794,5.76419,1.351527,-0.548296,-0.001438,4.049208,-13.00827,-78.548828,-610.169861
1733469062,13.714885,5.477933,1.401805,-0.420624,-0.24223,4.223581,-14.657669,-79.760895,-611.376343
1733469062,13.185916,5.380669,1.403451,-0.306584,-0.474637,4.431978,-15.952515,-80.517059,-611.335693
1733469062,12.601432,5.286547,1.33791,-0.197201,-0.63821,4.652638,-17.570724,-81.80983,-611.760742
1733469062,12.015301,5.246145,1.546505,-0.098704,-0.800342,4.934617,-19.486343,-82.949768,-611.5
1733469062,11.067197,4.969166,1.846528,-0.015604,-0.99218,5.228404,-21.527847,-83.979065,-611.935791
1733469062,9.949554,4.897339,2.001852,0.047463,-1.177532,5.514108,-23.569824,-84.961868,-612.101196
1733469062,8.839841,4.924125,1.906383,0.08817,-1.281111,5.773629,-25.608994,-85.91275,-611.89917
1733469062,7.990798,5.096358,1.91611,0.120241,-1.357646,6.059479,-28.154556,-86.673599,-612.303711
1733469062,6.802077,5.361366,1.914015,0.1818,-1.458158,6.411263,-30.941238,-87.384872,-612.308533
1733469062,5.435885,5.338022,1.919551,0.257758,-1.527188,6.756628,-33.590576,-88.005905,-611.734802
1733469062,4.5626,5.592107,1.854459,0.29257,-1.534068,7.155335,-36.538589,-88.267212,-612.310181
1733469062,3.439121,6.324433,1.698088,0.261645,-1.386787,7.703912,-39.806198,-88.291489,-612.567383
1733469062,1.379808,6.682067,1.745223,0.128099,-1.06241,8.267731,-43.439331,-87.973099,-612.427368
1733469062,-0.979079,6.471826,1.971475,-0.137686,-0.634733,8.723327,-47.863007,-87.128006,-612.234863
1733469062,-3.227982,5.778555,2.013075,-0.534979,-0.1313,9.019608,-51.658539,-86.251572,-612.69104
1733469062,-5.374235,4.903924,1.658882,-1.035047,0.354188,9.134651,-55.891113,-84.821472,-613.387268
1733469062,-7.443274,3.864241,0.485424,-1.493744,0.798853,9.111588,-59.707413,-83.024002,-614.335266
1733469062,-9.673024,2.821567,-0.957681,-1.785115,1.283889,8.97238,-63.415909,-80.914032,-615.459473
1733469062,-12.443115,1.452383,-1.353622,-1.918975,1.75507,8.671281,-66.414108,-78.499741,-616.920532
1733469062,-14.840459,0.773177,-0.668132,-2.138403,1.979716,8.208803,-69.384003,-75.914551,-617.575867
1733469062,-17.558925,0.18181,0.303016,-2.509668,1.734888,7.606875,-71.712036,-73.397781,-620.052368
1733469062,-19.93128,-1.420659,0.209193,-2.79546,0.911128,6.762107,-73.698898,-70.881744,-620.647217
1733469062,-21.891682,-2.942623,-1.625962,-2.752676,-0.348271,5.831788,-75.320679,-68.771545,-621.400391
1733469062,-24.210616,-5.080646,-4.65747,-2.295507,-1.738383,4.79538,-76.294556,-66.6409,-621.376465
1733469062,-25.734675,-7.278972,-8.129811,-1.477877,-2.837914,3.723007,-76.717422,-65.377335,-619.685913
1733469062,-26.313623,-8.916007,-10.626215,-0.530553,-3.320118,2.760881,-76.923065,-64.238113,-618.487976
1733469062,-26.22818,-10.0133,-11.344027,0.254193,-3.177101,1.963007,-77.219421,-63.382401,-616.518127
1733469062,-25.540146,-10.641628,-10.730213,0.718322,-2.561846,1.33143,-77.368057,-62.866318,-615.978638
1733469062,-24.417864,-10.921899,-9.062053,0.866796,-1.721806,0.84402,-77.649078,-62.430328,-614.711792
1733469062,-23.274633,-11.068544,-7.089381,0.718691,-0.934803,0.47163,-77.618301,-62.375397,-614.252869
1733469062,-22.590639,-11.529577,-5.90859,-0.000501,0.407685,-0.243725,-77.892502,-62.349258,-614.707336
1733469062,-22.02875,-11.924321,-5.398027,-0.000501,0.407685,-0.243725,-78.065155,-62.691742,-615.390625
1733469062,-21.127184,-12.207585,-5.497087,-0.603066,1.303097,-1.086258,-78.151199,-63.326553,-616.396484
1733469062,-19.842096,-12.433388,-6.106561,-0.641836,1.544563,-1.502708,-78.093811,-63.718613,-616.649414
1733469062,-18.218079,-12.132018,-6.7922,-0.641836,1.544563,-1.502708,-77.82399,-64.621826,-617.714783
1733469062,-16.601245,-11.492767,-7.030573,-0.272236,1.492554,-2.151662,-77.083298,-65.673508,-618.285706
1733469062,-15.294459,-10.662278,-7.08983,0.027732,1.327377,-2.390931,-76.551819,-66.538818,-618.99707
1733469062,-14.315381,-9.766547,-7.006332,0.312889,1.169553,-2.602219,-76.280045,-67.527237,-619.333008
1733469062,-13.660267,-9.102904,-6.724564,0.549303,1.053396,-2.787277,-75.498795,-68.77681,-619.881897
1733469062,-13.228862,-8.369979,-6.298845,0.714367,0.97905,-3.002841,-74.384552,-70.019562,-619.333252
1733469062,-12.973281,-7.817368,-5.771223,0.829498,0.928822,-3.24828,-73.476913,-71.217255,-620.099365
1733469062,-12.765584,-7.332991,-5.239112,0.932046,0.955277,-3.523066,-72.527588,-72.572769,-619.689697
1733469062,-12.516437,-6.756587,-4.827908,1.002732,1.050351,-3.819726,-71.215347,-73.910736,-620.09436
1733469062,-11.942577,-6.224924,-4.286519,1.04333,1.151271,-4.1094,-70.051514,-75.404007,-620.129333
1733469062,-11.095778,-5.717354,-3.619734,1.056581,1.237841,-4.39544,-68.470047,-76.954193,-620.231567
1733469062,-10.042778,-5.319018,-2.971952,1.058656,1.239537,-4.654404,-66.85083,-78.442169,-619.926941
1733469062,-8.737489,-4.80636,-2.27943,1.074203,1.143744,-4.864701,-65.375702,-79.713242,-619.796875
1733469062,-7.5356,-3.989638,-1.702577,1.118142,0.972146,-5.048327,-63.321899,-81.188202,-619.751892
1733469062,-6.432322,-3.293524,-1.338957,1.213081,0.774111,-5.202862,-61.151215,-82.530853,-619.435547
1733469062,-5.284153,-2.734178,-1.19336,1.350568,0.559013,-5.308311,-59.030151,-83.72197,-618.222717
1733469062,-4.279187,-2.045396,-0.958728,1.494107,0.331178,-5.409507,-56.823227,-84.962418,-618.287231
1733469062,-3.395876,-1.669806,-0.678008,1.616839,0.136956,-5.531646,-54.519745,-85.921631,-617.686035
1733469062,-2.4361,-1.634791,-0.338031,1.68188,-0.062872,-5.647522,-52.028503,-86.756287,-616.921265
1733469062,-1.677288,-1.520019,0.132729,1.668256,-0.222407,-5.783446,-49.423172,-87.578751,-616.088135
1733469062,-0.881365,-1.246631,0.440383,1.591407,-0.348569,-5.852869,-46.498169,-88.043442,-615.252747
1733469062,0.177769,-0.522086,0.847398,1.448824,-0.454011,-5.87281,-43.903824,-88.283096,-614.490845
1733469062,1.15191,0.097713,1.203685,1.227213,-0.509614,-5.877531,-41.105972,-88.321442,-613.570984
1733469062,2.154781,0.46672,1.300201,0.981416,-0.495893,-5.798001,-38.445068,-88.394073,-613.202759
1733469062,3.370886,0.984915,1.179593,0.734892,-0.424908,-5.635065,-35.886642,-88.339066,-613.060303
1733469062,4.547936,1.308132,0.951695,0.49156,-0.288357,-5.45359,-33.457977,-88.059479,-612.581299
1733469062,5.472846,1.18932,0.446369,0.315546,-0.019517,-5.29765,-31.239243,-87.676758,-612.868896
1733469062,6.459257,1.002572,-0.219668,0.202015,0.339449,-5.130632,-29.171921,-87.088043,-612.27002
1733469062,7.851186,1.085022,-0.453851,0.095834,0.731486,-4.925163,-27.012787,-86.619385,-612.160156
1733469062,9.186402,1.519869,-0.290896,0.004365,1.043911,-4.668117,-25.267746,-85.824631,-611.945068
1733469062,10.672004,2.208801,0.196025,-0.040304,1.099267,-4.299296,-23.621521,-85.280167,-611.536926
1733469062,12.437878,2.982577,0.995539,-0.010411,0.81021,-3.824198,-22.013412,-84.55864,-611.886047
1733469062,13.954305,3.29502,1.540968,0.057636,0.421748,-3.296243,-20.909744,-84.024353,-611.193726
1733469062,14.829984,3.015946,1.04073,0.139366,0.194649,-2.810067,-19.880295,-83.324615,-611.412598
1733469062,14.95583,2.362179,-0.08245,0.241083,0.341962,-2.497971,-19.212494,-82.584427,-611.248962
1733469062,14.405911,1.559074,-1.24708,0.327422,0.823959,-2.359816,-18.66185,-82.113571,-610.375
1733469062,14.441226,1.311274,-1.295562,0.327859,1.232638,-2.290464,-18.383865,-81.671341,-610.662231
1733469062,15.366136,1.674744,0.254833,0.251466,1.385041,-2.225298,-17.722595,-81.054398,-610.595215
1733469062,16.626833,2.220472,2.037615,0.185517,1.193636,-2.090622,-17.216904,-80.618027,-610.141968
1733469062,17.926286,2.740014,3.284246,0.168331,0.74489,-1.851812,-16.657959,-80.143723,-609.875
1733469062,18.968512,2.909254,3.958812,0.165474,0.118788,-1.54692,-16.020538,-79.785675,-610.402039
1733469062,19.312229,2.79538,4.096928,0.190515,-0.378613,-1.247253,-15.494736,-79.563766,-610.253967
1733469062,19.128624,2.632724,3.083432,0.234832,-0.509445,-0.954876,-15.012161,-79.167801,-609.965149
1733469062,19.240702,2.639009,2.008137,0.216706,-0.472377,-0.613167,-14.726273,-78.868256,-609.09729
1733469062,19.435381,2.727445,1.905485,0.151861,-0.351207,-0.295263,-14.67804,-78.742386,-609.95105
1733469062,19.25417,2.707692,1.90758,0.081412,-0.188684,-0.02185,-14.648758,-78.736084,-610.045898
1733469062,19.224691,2.717269,1.968632,0.032779,-0.132853,0.252184,-14.764923,-78.97493,-609.942139
1733469062,19.49374,2.584092,2.25055,0.031611,-0.20876,0.585861,-14.918488,-79.165375,-609.95459
1733469062,19.358916,2.50239,2.185756,0.083117,-0.246451,0.920194,-15.10054,-79.323746,-610.159546
1733469062,18.516756,2.383577,1.884536,0.120656,-0.24833,1.233253,-15.406158,-79.766617,-610.587769
1733469062,17.700183,2.272546,2.076072,0.115226,-0.282492,1.529009,-15.757339,-80.184647,-610.302734
1733469062,16.997635,2.34946,2.647987,0.065969,-0.372209,1.81495,-16.311981,-80.595947,-610.047302
1733469062,16.559945,2.256834,3.123835,-0.020475,-0.429176,2.102319,-16.686951,-81.021225,-610.048523
1733469062,16.096517,2.218976,3.181894,-0.125718,-0.401478,2.382695,-17.5849,-81.53862,-609.57605
1733469062,15.523255,2.316839,3.085827,-0.246459,-0.349428,2.676337,-18.571213,-82.316208,-610.284302
1733469062,15.225327,2.363227,3.107674,-0.37292,-0.3464,3.027355,-19.848083,-82.89183,-610.559998
1733469062,15.039627,2.462736,3.115156,-0.480888,-0.351098,3.397075,-20.947998,-83.70668,-611.04126
1733469062,14.622886,2.594566,2.808249,-0.560577,-0.36658,3.803608,-22.526505,-84.436508,-610.977783
1733469062,14.147936,2.688389,2.447473,-0.592507,-0.410854,4.221407,-24.088623,-85.400101,-611.630127
1733469062,13.451523,2.745102,2.135029,-0.57639,-0.503763,4.629555,-25.706131,-86.02948,-612.215454
1733469062,12.645724,2.877681,2.096572,-0.565719,-0.685872,5.029519,-27.944061,-86.893173,-612.38385
1733469063,11.659164,2.953547,2.140566,-0.561859,-0.877132,5.410482,-30.034378,-87.563873,-612.84906
1733469063,10.412982,3.035698,1.804929,-0.528009,-1.024823,5.785073,-32.820847,-88.09343,-613.256958
1733469063,9.003545,3.168876,1.355866,-0.513533,-1.025579,6.154588,-34.863052,-88.517532,-612.985596
1733469063,7.614609,3.310133,0.77632,-0.546184,-0.887303,6.546701,-38.097427,-88.670639,-613.291382
1733469063,6.504298,3.615993,0.345364,-0.635891,-0.670359,6.986843,-41.192795,-88.671173,-613.722656
1733469063,5.325004,3.948188,0.079009,-0.778758,-0.407611,7.438712,-44.385117,-88.26384,-614.77356
1733469063,3.743334,4.158878,-0.043245,-0.984125,-0.135503,7.85839,-48.150055,-87.595749,-615.053406
1733469063,1.810316,4.311658,-0.141856,-1.23577,0.075424,8.193793,-51.862488,-86.583633,-615.425537
1733469063,-0.113126,4.262577,-0.183306,-1.489877,0.182743,8.44308,-55.503418,-85.38884,-616.256897
1733469063,-1.939752,3.845238,-0.452354,-1.691227,0.229078,8.575086,-58.927399,-83.591843,-617.296143
1733469063,-3.84015,3.317765,-1.105074,-1.788023,0.264558,8.626986,-62.69783,-81.393097,-617.902954
1733469063,-6.650045,2.86571,-1.879897,-1.816464,0.304596,8.465229,-66.384933,-79.076324,-618.980896
1733469063,-10.408193,1.154454,-2.546383,-1.812829,0.328619,7.945425,-69.013107,-76.836136,-619.776855
1733469063,-13.402891,-1.533935,-3.173963,-1.776446,0.241615,7.242614,-71.34935,-74.273407,-620.75885
1733469063,-15.15814,-3.308188,-3.339462,-1.711536,-0.083784,6.52102,-73.16124,-71.902435,-621.059814
1733469063,-16.78485,-4.073584,-3.218256,-1.598365,-0.543735,5.78337,-74.614471,-69.518234,-620.972656
1733469063,-18.751387,-4.662708,-3.432088,-1.49633,-0.969535,5.006444,-74.614471,-69.518234,-620.972656
1733469063,-20.805164,-5.617695,-3.920655,-1.426878,-1.413233,4.137474,-76.418167,-66.099335,-620.547485
1733469063,-22.636877,-7.095516,-4.41401,-1.309241,-1.928642,3.264525,-76.719986,-64.985413,-619.973755
1733469063,-23.355138,-8.078635,-5.368698,-1.019479,-2.318229,2.5619,-76.719986,-64.985413,-619.973755
1733469063,-23.219716,-8.350377,-6.92463,-0.645192,-2.502023,2.019474,-77.201752,-63.884216,-618.848633
1733469063,-23.332842,-8.688857,-8.062624,-0.326748,-2.378505,1.547859,-77.364304,-62.969009,-617.900635
1733469063,-23.832632,-9.395147,-8.881291,-0.143193,-1.895041,1.09784,-77.705261,-62.440201,-617.327454
1733469063,-24.345739,-10.310929,-9.271995,-0.153144,-1.156883,0.607916,-77.852554,-61.981064,-616.764771
1733469063,-24.82413,-11.496208,-9.522787,-0.247721,-0.196063,0.052127,-77.967758,-61.815323,-616.032776
1733469063,-24.900894,-12.460473,-10.081085,-0.302874,0.802515,-0.519199,-78.254074,-61.916534,-616.212158
1733469063,-24.147319,-12.621633,-10.08348,-0.284558,1.559029,-1.030664,-78.032913,-62.357162,-617.497986
1733469063,-22.573132,-12.073809,-9.355044,-0.176295,1.941529,-1.481455,-78.264236,-63.162628,-617.545471
1733469063,-20.621857,-11.517457,-8.39452,0.004565,1.911924,-1.894074,-77.883087,-63.77684,-619.020142
1733469063,-18.828151,-10.879701,-7.291541,0.241237,1.543954,-2.269095,-77.641434,-64.794601,-619.423401
1733469063,-17.424401,-10.010756,-6.506842,0.512671,1.076627,-2.614966,-77.067886,-65.878799,-620.06012
1733469063,-16.332944,-9.391406,-6.336105,0.760315,0.699627,-2.944362,-76.365784,-67.104248,-620.766724
1733469063,-15.547048,-9.148544,-6.331466,0.946237,0.449229,-3.27684,-75.428482,-68.232269,-619.853149
1733469063,-15.066711,-8.76622,-6.235997,1.082409,0.369259,-3.593702,-74.281281,-69.631104,-620.337158
1733469063,-14.664336,-7.919869,-6.019023,1.156807,0.421225,-3.888665,-73.099869,-71.280151,-619.456665
1733469063,-14.144494,-6.980744,-5.575796,1.193934,0.590996,-4.16588,-71.816666,-72.857849,-619.443726
1733469063,-13.460351,-6.296002,-5.179107,1.237973,0.831381,-4.429468,-70.593872,-74.463043,-619.499512
1733469063,-12.675053,-5.812224,-4.600159,1.275483,1.006743,-4.68912,-68.787292,-76.083359,-619.095825
1733469063,-11.769746,-5.168483,-3.719841,1.30735,1.103364,-4.952944,-67.307449,-77.592529,-619.329285
1733469063,-10.846332,-4.531027,-2.871695,1.32339,1.120171,-5.235438,-65.683701,-79.304611,-618.333008
1733469063,-9.825504,-3.877559,-2.110189,1.334066,1.06239,-5.527258,-63.519836,-80.908615,-618.169312
1733469063,-8.672247,-3.227085,-1.558476,1.388815,0.924425,-5.788683,-61.351944,-82.247818,-618.818237
1733469063,-7.254281,-2.544587,-1.119888,1.479777,0.694652,-5.986665,-59.06221,-83.682037,-617.620361
1733469063,-5.943007,-1.656189,-0.696713,1.561615,0.438565,-6.154972,-56.43428,-84.935791,-617.613281
1733469063,-4.92622,-0.989703,-0.510115,1.637702,0.210504,-6.333439,-53.570724,-86.098495,-616.241699
1733469063,-4.115184,-0.418087,-0.455198,1.70781,0.00265,-6.488235,-50.657364,-86.931503,-615.313416
1733469063,-3.388992,0.373795,-0.354791,1.746982,-0.135949,-6.598606,-47.477814,-87.527679,-615.072998
1733469063,-2.797625,1.210867,-0.229394,1.727139,-0.18507,-6.714638,-44.61113,-88.045227,-613.704773
1733469063,-2.372355,1.744924,-0.119411,1.679481,-0.189332,-6.854728,-41.329712,-88.14537,-613.704773
1733469063,-1.693898,2.272696,0.069282,1.620836,-0.157041,-6.958053,-38.13298,-88.403687,-611.987305
1733469063,-0.37559,2.804209,0.283563,1.490578,-0.172539,-6.966039,-35.130325,-88.023849,-611.415283
1733469063,1.0322,3.271078,0.775422,1.277298,-0.189852,-6.955601,-32.03511,-87.62355,-610.128174
1733469063,2.772785,3.986046,0.72275,1.057078,-0.122734,-6.989893,-28.737335,-86.908112,-609.93396
1733469063,2.772785,3.986046,0.72275,0.914055,-0.032463,-6.968179,-25.945328,-85.877853,-609.868469
1733469063,4.098724,4.818181,0.662595,0.810184,0.042001,-6.837666,-23.02774,-84.908447,-608.913086
1733469063,7.121104,6.611139,1.304391,0.689938,0.092518,-6.621176,-20.215607,-83.692856,-608.485229
1733469063,8.880543,7.20116,1.872715,0.541841,0.065144,-6.324364,-17.822296,-82.368118,-608.845947
1733469063,8.880543,7.20116,1.872715,0.35518,-0.003217,-5.998231,-15.868851,-80.986191,-608.399292
1733469063,13.594427,7.9278,1.57329,0.159316,-0.010447,-5.568511,-14.042664,-79.350418,-608.498291
1733469063,15.912014,8.326584,1.00332,0.046857,0.09689,-5.022704,-12.617874,-78.057053,-608.652466
1733469063,17.415573,8.429385,0.882413,0.00415,0.224337,-4.44218,-11.377777,-76.830978,-608.089355
1733469063,18.62644,8.424597,0.640449,-0.022395,0.424936,-3.933146,-10.602295,-75.470459,-608.398438
1733469063,20.035428,8.88578,0.585682,-0.048051,0.775117,-3.432443,-9.376495,-74.473755,-607.775085
1733469063,21.345206,9.444677,1.415572,-0.105559,1.077242,-2.858829,-8.958618,-73.798935,-608.03595
1733469063,21.345206,9.444677,1.415572,-0.170668,1.256665,-2.34395,-8.853073,-72.948761,-607.809692
1733469063,22.120927,9.494805,3.071162,-0.197223,1.294328,-1.938602,-8.562012,-72.438965,-606.947205
1733469063,22.60695,9.510966,3.976619,-0.215684,1.090425,-1.566194,-8.214325,-71.921631,-607.059753
1733469063,22.647202,9.459341,4.188207,-0.206796,0.763141,-1.251439,-8.078323,-71.507294,-606.473511
1733469063,22.937649,9.48852,4.303877,-0.152779,0.406393,-0.972919,-7.882034,-71.266327,-607.121094
1733469063,22.937649,9.48852,4.303877,-0.125228,-0.043834,-0.609608,-7.649628,-71.025269,-606.954346
1733469063,23.60204,9.524882,4.411167,-0.125521,-0.476057,-0.165307,-7.342499,-70.775116,-606.338196
1733469063,23.289297,9.41445,3.838504,-0.161459,-0.777464,0.348525,-7.115356,-70.874069,-607.119385
1733469063,22.842629,9.200618,2.994997,-0.247898,-0.893805,0.92597,-7.030289,-71.124832,-607.346741
1733469063,22.159982,9.018209,2.119317,-0.333734,-0.823085,1.566601,-7.459625,-71.727188,-608.029785
1733469063,21.028423,8.666561,1.605761,-0.40467,-0.63808,2.194371,-7.53537,-72.291336,-608.236755
1733469063,19.66702,8.39467,1.388487,-0.469655,-0.398809,2.769661,-8.285889,-73.417984,-607.74939
1733469063,18.259529,8.118588,1.423203,-0.550089,-0.188891,3.292278,-9.177322,-74.341568,-609.007507
1733469063,16.817172,7.618499,1.443404,-0.63931,-0.017177,3.749972,-10.170914,-75.715698,-608.463196
1733469063,15.48435,7.249194,1.475277,-0.749231,0.152747,4.137184,-11.55632,-77.106384,-608.778564
1733469063,14.433145,7.007529,1.747767,-0.887031,0.257997,4.471361,-12.753555,-78.385849,-609.752319
1733469063,13.654132,6.737134,2.095076,-1.000954,0.1977,4.77807,-14.811569,-79.764206,-609.682739
1733469063,12.86614,6.497564,2.301277,-1.041013,-0.040808,5.087377,-16.427521,-80.891678,-610.034546
1733469063,11.77199,6.332214,2.152836,-1.032634,-0.332862,5.384658,-18.556396,-82.565323,-610.313721
1733469063,10.630106,5.997924,1.807922,-0.985014,-0.597288,5.658824,-20.580688,-83.761017,-611.23999
1733469063,9.553314,5.515492,1.471985,-0.920772,-0.809202,5.926705,-22.790787,-84.866562,-611.826843
1733469063,8.267178,5.241207,1.198747,-0.852866,-0.980216,6.183266,-25.494034,-85.83989,-612.088074
1733469063,7.142053,4.926369,0.835726,-0.777113,-1.052837,6.387951,-28.080215,-86.816269,-613.160461
1733469063,6.472575,4.753089,0.749984,-0.688675,-1.117202,6.618849,-31.129379,-87.521027,-613.724182
1733469063,5.717653,4.81878,0.644639,-0.576707,-1.2112,6.911922,-33.928314,-87.969498,-613.952271
1733469063,4.614375,4.969614,0.547823,-0.467707,-1.2354,7.241151,-36.912186,-88.349365,-614.578857
1733469063,3.192219,4.97156,0.697611,-0.422414,-1.155846,7.589345,-40.487656,-88.309006,-614.617737
1733469063,1.838448,4.81848,1.048511,-0.502989,-0.989415,7.911365,-44.111603,-88.171738,-614.183411
1733469063,0.877475,4.750246,1.294665,-0.729137,-0.755188,8.213455,-47.615479,-87.434555,-614.976929
1733469063,0.218621,5.21517,1.239598,-1.052282,-0.499606,8.561497,-51.564194,-86.52565,-615.231812
1733469063,-0.802058,6.27206,1.035193,-1.380228,-0.27776,9.004731,-55.249771,-85.076172,-616.252075
1733469063,-2.859874,7.482778,0.436643,-1.677436,-0.15284,9.512242,-58.901825,-83.123932,-616.833374
1733469063,-5.99568,7.952939,-0.615011,-1.899073,-0.038004,9.955083,-62.770004,-80.680038,-617.34906
1733469063,-10.457574,6.906374,-1.691952,-2.008748,0.175086,10.213001,-67.225327,-77.64975,-618.826294
1733469063,-15.799935,3.870975,-2.376096,-2.078801,0.495629,9.999705,-70.865952,-74.387039,-619.942017
1733469063,-20.573525,0.506224,-2.41964,-2.314644,0.72779,9.181218,-74.032059,-71.15625,-620.054871
1733469064,-24.254011,-1.400309,-2.348263,-2.662248,0.384314,7.898806,-76.024857,-68.27919,-621.427795
1733469064,-26.383953,-2.749591,-3.574842,-2.647654,-0.62011,6.42962,-77.415527,-65.71431,-622.161987
1733469064,-27.983579,-4.538509,-5.835118,-2.056566,-1.887102,5.007463,-77.886368,-63.49675,-621.057312
1733469064,-28.865692,-5.956624,-7.703344,-1.129723,-3.14662,3.69193,-78.167923,-61.929382,-619.822266
1733469064,-28.737902,-6.693889,-9.154829,-0.221716,-3.9765,2.605313,-78.119812,-60.755341,-617.054565
1733469064,-28.050167,-7.010073,-9.993248,0.439304,-4.151364,1.875639,-78.047806,-59.935089,-615.766663
1733469064,-27.670387,-7.559841,-10.514286,0.793957,-3.577864,1.428058,-77.969589,-59.36438,-614.075684
1733469064,-27.608886,-8.519916,-10.432285,0.872129,-2.408078,1.09224,-78.19722,-58.562439,-612.72876
1733469064,-27.679665,-9.584289,-9.594314,0.730227,-1.018409,0.740285,-78.682281,-58.467056,-613.037109
1733469064,-27.771542,-10.757298,-8.604162,0.486968,0.31018,0.289046,-79.175827,-58.610672,-613.184021
1733469064,-27.356298,-11.742811,-7.554754,0.214823,1.403568,-0.308847,-79.204803,-59.143906,-614.247437
1733469064,-25.950901,-11.999888,-6.498611,-0.013049,2.047687,-0.983333,-79.706238,-59.683182,-614.934204
1733469064,-23.777565,-11.866112,-5.967997,-0.092646,2.254194,-1.650574,-79.481308,-60.588165,-616.12146
1733469064,-21.321114,-11.316942,-5.567267,-0.006861,2.068157,-2.255311,-79.015274,-61.845169,-617.241516
1733469064,-18.966267,-9.983821,-5.315277,0.211682,1.633115,-2.708629,-78.116898,-63.186813,-617.310913
1733469064,-17.151761,-8.579023,-5.309741,0.476056,1.14313,-3.017573,-77.702866,-64.456146,-618.092651
1733469064,-15.840786,-7.933038,-5.468955,0.714392,0.759448,-3.255443,-76.810501,-66.037918,-617.00531
1733469064,-14.909891,-7.56448,-5.651363,0.893784,0.531662,-3.462136,-76.149872,-67.508057,-617.85376
1733469064,-14.361469,-7.066337,-5.786187,1.030293,0.494617,-3.666597,-75.073868,-68.959274,-617.728271
1733469064,-14.039599,-6.454917,-5.653159,1.149588,0.610037,-3.884839,-74.011719,-70.631393,-617.745605
1733469064,-13.80766,-5.775413,-5.244199,1.267124,0.803523,-4.135443,-72.727875,-72.329376,-617.570618
1733469064,-13.254899,-5.424662,-4.62889,1.387964,1.023848,-4.425109,-71.59198,-73.95636,-617.420227
1733469064,-12.349442,-5.196465,-3.768922,1.498009,1.170555,-4.760493,-69.955444,-75.679749,-617.70575
1733469064,-11.113734,-4.673482,-2.835932,1.590516,1.182177,-5.106296,-68.083237,-77.504471,-617.271973
1733469064,-9.687838,-3.985598,-2.081758,1.68205,1.087241,-5.433861,-65.875076,-79.395477,-616.839478
1733469064,-8.200141,-3.008015,-1.508197,1.775418,0.949918,-5.703669,-63.841476,-80.840866,-616.314087
1733469064,-6.649147,-1.958158,-1.054646,1.865299,0.799348,-5.908914,-61.263138,-82.453735,-615.661133
1733469064,-5.317223,-1.048062,-0.492607,1.950799,0.624183,-6.041972,-58.684784,-83.879623,-614.78894
1733469064,-4.194492,-0.354491,0.078111,2.021592,0.425362,-6.123558,-56.307129,-84.984695,-614.12915
1733469064,-3.157653,-0.004639,0.657957,2.05322,0.193053,-6.197996,-53.715652,-85.927383,-613.366699
1733469064,-2.091485,0.27653,1.26758,2.042401,-0.073692,-6.254029,-50.974564,-86.75264,-612.295166
1733469064,-1.187075,0.413,1.704073,1.966707,-0.37188,-6.294796,-48.018814,-87.356339,-611.768005
1733469064,-0.566977,0.454599,1.824531,1.832582,-0.657938,-6.351244,-45.016235,-87.65947,-610.127686
1733469064,-0.172981,0.54513,1.693748,1.666804,-0.85597,-6.43958,-42.094528,-87.702774,-609.837524
1733469064,0.124648,0.864456,1.421108,1.471508,-0.893691,-6.572114,-38.897125,-87.724075,-608.794373
1733469064,0.241814,1.498471,1.236755,1.234495,-0.795124,-6.715345,-35.827728,-87.541794,-608.371765
1733469064,0.679654,2.259677,0.97459,0.992169,-0.573955,-6.871396,-32.633438,-87.057999,-607.849915
1733469064,2.003199,3.311929,0.869993,0.806651,-0.277762,-6.957798,-29.459869,-86.493881,-607.673279
1733469064,3.71625,4.279187,1.306486,0.661943,-0.054874,-6.899718,-26.668457,-85.634216,-607.385681
1733469064,5.168782,4.672584,1.753453,0.50746,0.066016,-6.767822,-23.91069,-84.772568,-607.225769
1733469064,6.321441,4.938041,2.126799,0.333412,0.125904,-6.629886,-21.42392,-83.602356,-606.990723
1733469064,7.775768,5.465663,2.407519,0.186094,0.113598,-6.486679,-18.96019,-82.326797,-606.736511
1733469064,9.520094,6.161328,2.662951,0.074801,0.030072,-6.236976,-17.019318,-81.032532,-606.704224
1733469064,11.108348,6.653038,2.9109,-0.022246,-0.18856,-5.887702,-14.499191,-79.552963,-606.891296
1733469064,12.846388,6.906673,2.536208,-0.115001,-0.447413,-5.425359,-12.762329,-78.232361,-606.947144
1733469064,14.183101,7.014113,1.741482,-0.17948,-0.598671,-4.839864,-11.583801,-76.984116,-607.645569
1733469064,14.595502,6.644658,0.80101,-0.232334,-0.602085,-4.243532,-10.778351,-75.85582,-607.817017
1733469064,14.508862,6.199636,-0.542436,-0.281757,-0.240596,-3.800379,-9.997803,-74.818359,-607.855774
1733469064,14.858416,6.454468,-0.959177,-0.306828,0.439861,-3.497006,-9.437241,-73.833527,-607.398132
1733469064,15.516522,7.112575,-0.147543,-0.310737,1.0883,-3.302916,-9.310654,-72.979095,-607.425415
1733469064,16.638804,7.892186,1.389086,-0.27883,1.469999,-3.280638,-8.592743,-72.02005,-607.368225
1733469064,19.219304,8.897751,3.358167,-0.205974,1.402749,-3.23194,-7.800507,-71.195389,-607.185425
1733469064,21.958271,9.762956,5.11596,-0.114485,0.754176,-3.001567,-7.130386,-70.042404,-606.277466
1733469064,23.726688,10.594342,5.753566,0.013377,-0.269149,-2.593922,-6.31543,-69.217422,-607.263428
1733469064,24.716242,10.932673,4.937442,0.159704,-1.293537,-2.069886,-5.674194,-68.710236,-607.252197
1733469064,24.955063,10.857106,3.05964,0.251104,-1.832479,-1.4714,-5.011337,-68.140152,-607.930542
1733469064,24.885631,11.112837,1.604714,0.23213,-1.7934,-0.80323,-4.867859,-68.11058,-608.606812
1733469064,25.000553,11.254394,0.853383,0.112878,-1.329269,-0.059246,-4.770584,-68.41774,-609.084778
1733469064,24.908526,11.010485,1.026065,-0.062717,-0.771776,0.697925,-5.090042,-68.829559,-608.968994
1733469064,24.512286,10.893917,1.729661,-0.232551,-0.406611,1.46325,-5.370285,-69.925308,-609.630859
1733469064,23.700053,10.652701,2.143409,-0.416061,-0.251799,2.242413,-6.245621,-70.670349,-609.339478
1733469064,21.953333,10.164434,1.835904,-0.58868,-0.162211,2.973204,-7.044922,-71.956894,-610.006836
1733469064,19.776555,9.726295,1.287482,-0.717012,-0.010171,3.601774,-8.005142,-73.385956,-609.602051
1733469064,17.687464,9.291597,1.236904,-0.811062,0.15219,4.106081,-9.385391,-74.731125,-610.142212
1733469064,15.694441,8.841338,1.629105,-0.887245,0.178762,4.489319,-11.013458,-76.446289,-610.558716
1733469064,13.957597,8.338256,1.817199,-0.944298,0.098099,4.737803,-12.39241,-78.043213,-611.334351
1733469064,12.698097,7.735815,1.719935,-0.950579,-0.035799,4.917708,-14.276047,-79.612137,-612.420044
1733469064,11.73892,7.169587,1.57299,-0.920709,-0.185158,5.061449,-14.276047,-79.612137,-612.420044
1733469064,11.009287,6.828712,1.447744,-0.853133,-0.353902,5.220136,-16.016174,-80.729172,-611.91803
1733469064,10.370185,6.441899,1.367388,-0.766073,-0.530457,5.399342,-18.017548,-82.112152,-612.368713
1733469064,9.686042,6.090999,1.276858,-0.68252,-0.703254,5.603559,-20.313202,-83.266495,-612.742676
1733469064,8.84044,5.854571,1.122132,-0.536267,-0.916212,6.029969,-22.415588,-84.591171,-613.164429
1733469064,7.949647,5.602881,1.048361,-0.536267,-0.916212,6.029969,-24.753372,-85.501175,-613.694153
1733469064,7.182006,5.266495,1.090409,-0.389177,-1.153789,6.513433,-27.279953,-86.752975,-613.297424
1733469064,6.212654,5.130774,1.06108,-0.31788,-1.227814,6.759316,-29.765335,-87.3862,-614.4599
1733469064,4.80621,4.947618,1.024718,-0.274209,-1.257195,6.964608,-32.803329,-88.10141,-614.661133
1733469064,3.537283,4.565443,1.225831,-0.296612,-1.257289,7.153735,-36.133102,-88.3116,-615.250488
1733469064,2.61791,4.255843,1.405845,-0.380265,-1.191989,7.379894,-38.853958,-88.548523,-615.410461
1733469064,2.012326,4.287566,1.214908,-0.507397,-0.989833,7.716918,-42.151169,-88.467148,-615.184814
1733469064,1.572691,4.765359,0.806547,-0.69423,-0.66873,8.146926,-45.767487,-87.944641,-615.067444
1733469064,0.322319,5.256021,0.401328,-0.955124,-0.280184,8.49819,-49.559769,-87.335068,-615.911255
1733469064,-1.357363,4.964078,-0.011073,-1.233249,0.08389,8.758582,-53.566391,-85.998932,-616.276123
1733469064,-3.086874,4.496311,-0.461333,-1.461623,0.382724,8.967833,-57.165176,-84.673706,-617.432739
1733469064,-5.162048,4.390966,-1.066617,-1.650642,0.809311,9.176003,-60.397934,-82.58934,-617.228882
1733469064,-8.401553,4.226215,-1.676989,-1.999395,1.305143,9.150457,-64.017868,-80.051819,-618.754639
1733469064,-12.186786,3.332878,-1.274015,-2.619373,1.295486,8.759434,-67.792145,-77.336594,-619.907166
1733469064,-15.784223,2.417395,-0.23538,-3.092121,0.577357,8.064216,-70.709702,-74.457581,-621.437805
1733469064,-19.239505,1.297657,-0.838419,-3.040586,-0.488975,7.127682,-72.973633,-71.34668,-622.574402
1733469064,-23.041049,-0.914884,-3.442263,-2.542547,-1.547557,5.94075,-74.784561,-68.789368,-623.153809
1733469064,-26.942251,-3.74094,-6.692093,-1.830246,-2.244957,4.606122,-76.198044,-66.186798,-622.853027
1733469064,-29.42399,-6.093842,-9.532065,-1.147903,-2.513824,3.405164,-76.798798,-64.101303,-622.545532
1733469064,-29.451673,-7.17228,-10.894366,-0.681259,-2.505965,2.514907,-77.130997,-62.679993,-621.163391
1733469064,-28.197261,-7.550564,-11.058518,-0.397711,-2.31223,1.908455,-77.537659,-61.533264,-619.952759
1733469064,-27.352557,-8.078635,-11.202769,-0.1615,-1.939702,1.446848,-77.61084,-60.648575,-618.364685
1733469064,-27.498154,-8.968979,-11.835886,0.082937,-1.337104,0.957281,-78.03978,-60.110321,-618.308228
1733469064,-28.075606,-10.397419,-12.448053,0.287186,-0.655803,0.376389,-78.357025,-59.545166,-617.764893
1733469064,-28.332085,-11.615619,-12.218808,0.41873,0.002362,-0.308765,-78.586426,-59.655655,-617.512329
1733469064,-27.990911,-12.387001,-11.575516,0.52349,0.609273,-1.000559,-78.930878,-59.901627,-617.675842
1733469064,-26.640132,-12.365154,-10.713903,0.608244,1.148969,-1.646004,-78.693954,-60.538742,-618.486877
1733469064,-24.399608,-12.230929,-9.650279,0.670282,1.538044,-2.167761,-78.308838,-61.658997,-618.89386
1733469065,-21.46327,-11.801319,-8.408736,0.707237,1.656324,-2.543127,-78.012985,-62.825882,-619.460999
1733469065,-18.537406,-10.972776,-6.846818,0.72502,1.484204,-2.782525,-77.417831,-64.087097,-620.142883
1733469065,-16.34297,-10.101436,-5.577442,0.750101,1.178952,-2.954536,-76.824997,-65.3479,-620.331787
1733469065,-14.825944,-9.239374,-5.094263,0.790274,0.899331,-3.077733,-76.006302,-66.705978,-620.427185
1733469065,-13.702465,-8.428637,-5.024681,0.836723,0.702765,-3.193539,-75.324463,-67.942703,-620.977478
1733469065,-13.007997,-7.97329,-5.065383,0.884004,0.603174,-3.338483,-74.811111,-69.187073,-620.848938
1733469065,-12.677597,-7.596203,-5.113416,0.937415,0.612064,-3.530389,-73.612518,-70.879242,-621.032654
1733469065,-12.451495,-7.11856,-5.093963,1.00332,0.706663,-3.767781,-72.686981,-72.068527,-620.978027
1733469065,-12.055404,-6.795044,-5.091719,1.102361,0.891121,-4.039942,-71.39238,-73.715485,-620.716309
1733469065,-11.486033,-6.525546,-4.986224,1.218508,1.081603,-4.330215,-70.047012,-75.061127,-620.55365
1733469065,-10.58297,-5.989095,-4.372112,1.306649,1.164945,-4.599813,-68.508942,-76.686752,-620.583801
1733469065,-9.453505,-5.16983,-3.289932,1.336718,1.128901,-4.843966,-66.984116,-78.344315,-620.710327
1733469065,-8.270321,-4.345775,-2.398541,1.344096,1.060942,-5.05111,-64.958389,-80.026367,-620.438721
1733469065,-7.06888,-3.532645,-1.868974,1.373993,0.956672,-5.195544,-62.979675,-81.36322,-619.377747
1733469065,-5.902755,-2.456451,-1.363797,1.436877,0.811712,-5.279176,-60.799484,-82.506683,-619.785034
1733469065,-4.88043,-1.545158,-0.95394,1.515917,0.659731,-5.337646,-58.35524,-83.98912,-619.231384
1733469065,-3.981857,-1.075894,-0.684891,1.574005,0.522056,-5.403033,-56.265717,-85.0401,-618.842773
1733469065,-3.321506,-0.822857,-0.340725,1.59652,0.382634,-5.504215,-54.229996,-85.970398,-618.200562
1733469065,-2.792687,-0.742352,0.056713,1.570352,0.246399,-5.634092,-51.624435,-86.95694,-617.404419
1733469065,-2.218078,-0.673818,0.360926,1.495775,0.119018,-5.765002,-49.154892,-87.532166,-616.571655
1733469065,-1.576133,-0.485724,0.57805,1.401583,-0.016152,-5.89674,-46.203964,-87.871384,-615.677612
1733469065,-1.106121,-0.203956,0.708983,1.280706,-0.079672,-6.033154,-43.470932,-88.235107,-614.94635
1733469065,-0.646883,0.281768,0.64404,1.153401,-0.098329,-6.159101,-40.773895,-88.473907,-614.842407
1733469065,0.016161,0.888099,0.471059,1.075418,-0.054775,-6.227504,-37.941422,-88.706833,-613.315857
1733469065,0.984316,1.570447,0.161309,1.02926,0.071055,-6.234722,-35.21965,-88.24115,-613.42688
1733469065,1.954417,2.139518,0.058209,0.9832,0.223672,-6.240647,-32.310486,-87.96727,-612.741455
1733469065,3.049465,2.532317,0.265906,0.925054,0.297749,-6.185985,-29.682144,-87.249786,-612.197327
1733469065,4.369867,3.005771,0.695516,0.858722,0.291624,-6.091823,-27.099319,-86.421112,-611.799072
1733469065,5.589713,3.366846,1.083825,0.787099,0.2127,-5.957542,-24.618301,-85.584717,-611.404419
1733469065,6.819135,3.783886,1.371129,0.721799,0.13641,-5.734758,-22.150452,-84.71106,-611.155212
1733469065,8.39467,4.417901,1.490241,0.616283,0.109958,-5.357529,-19.603363,-83.519928,-610.860657
1733469065,10.198401,5.195268,1.710807,0.473716,0.050602,-4.86195,-17.786774,-82.497498,-610.328369
1733469065,11.916091,5.440075,2.18441,0.270025,-0.074589,-4.337905,-16.512863,-81.46051,-610.083496
1733469065,12.997223,4.974403,2.289904,0.045658,-0.029624,-3.90668,-15.139481,-80.57016,-610.434998
1733469065,13.532626,4.456956,1.195455,-0.07842,0.346258,-3.545382,-14.092636,-79.604492,-610.81604
1733469065,13.923779,4.564695,-0.131831,-0.08643,0.937283,-3.284928,-13.263382,-78.561981,-610.350464
1733469065,14.467412,4.806061,-0.528071,-0.046144,1.411402,-3.105317,-12.662613,-77.860962,-610.082153
1733469065,15.50066,5.330989,0.431106,0.021502,1.568576,-2.972459,-12.17662,-76.937408,-609.495117
1733469065,16.794277,5.847089,1.790713,0.154411,1.427345,-2.840884,-11.720261,-76.23027,-609.089355
1733469065,18.203115,6.328324,3.295768,0.254234,0.878956,-2.689358,-11.240677,-75.357758,-608.873474
1733469065,19.844191,6.559514,5.152322,0.30477,-0.026958,-2.457305,-10.231918,-74.76387,-608.660156
1733469065,21.177761,6.908319,6.046856,0.3309,-0.875261,-2.155882,-9.433426,-74.042252,-608.782471
1733469065,21.79352,7.09806,5.33054,0.305137,-1.34763,-1.779545,-8.583817,-73.307938,-608.892273
1733469065,21.912332,7.079804,3.742586,0.242532,-1.336188,-1.351847,-8.035614,-72.567368,-609.138123
1733469065,21.712566,7.149086,2.087145,0.145741,-0.997755,-0.878562,-7.593552,-72.145218,-609.499939
1733469065,21.839459,7.078457,1.222838,0.072419,-0.605128,-0.444126,-7.000107,-71.904617,-609.800842
1733469065,22.043415,6.878841,0.932392,-0.029415,-0.296374,0.210652,-7.150925,-72.161591,-609.708862
1733469065,22.687455,8.017732,1.055544,-0.05634,-0.065136,0.825271,-7.352509,-72.480682,-610.042786
1733469065,22.114642,6.946178,0.882413,-0.07969,0.249551,1.374926,-7.679276,-72.713776,-609.890747
1733469065,20.862924,6.533926,0.62339,-0.148371,0.605929,1.828472,-7.998642,-73.266769,-609.470398
1733469065,19.309386,6.473772,1.126023,-0.267239,0.78005,2.177044,-9.01181,-74.012573,-609.266174
1733469065,17.832912,5.884648,2.031929,-0.37135,0.783925,2.418405,-9.80545,-74.865891,-609.088379
1733469065,16.714371,5.652411,2.696619,-0.451907,0.61599,2.653677,-10.659836,-75.880875,-609.212891
1733469065,16.282217,5.507262,3.277363,-0.530666,0.34047,2.917543,-11.50148,-76.621506,-609.194763
1733469065,15.977106,5.274726,3.48087,-0.592294,0.057137,3.214167,-12.185776,-77.633423,-609.858215
1733469065,15.584008,5.138855,3.265541,-0.627495,-0.198316,3.549899,-13.496246,-78.705734,-609.59668
1733469065,15.130756,4.99191,2.967463,-0.635803,-0.410259,3.91277,-15.067383,-79.974564,-610.507629
1733469065,14.310592,4.90961,2.542642,-0.635282,-0.494636,4.232404,-16.295868,-80.711411,-610.37915
1733469065,13.301137,4.817134,2.094926,-0.645609,-0.512726,4.53998,-17.76712,-81.864365,-610.922302
1733469065,12.363358,4.71538,2.085799,-0.684327,-0.523009,4.783859,-19.868225,-83.069855,-611.337158
1733469065,11.147852,4.352509,2.246809,-0.760102,-0.583499,4.967319,-21.790131,-84.068832,-611.436218
1733469065,10.25272,3.971532,2.541744,-0.846217,-0.755045,5.150051,-23.50882,-85.144928,-612.478333
1733469065,9.560795,3.799598,2.605789,-0.88175,-0.955744,5.340992,-25.752014,-86.072647,-612.043091
1733469065,8.755446,3.715502,2.196081,-0.854163,-1.106599,5.52705,-28.058044,-86.76355,-613.504395
1733469065,8.059332,3.634847,1.682376,-0.792293,-1.247871,5.75152,-30.318451,-87.377609,-613.789368
1733469065,7.60578,3.69575,1.337162,-0.69538,-1.394945,6.073121,-32.966736,-88.004196,-614.311035
1733469065,7.163451,3.877559,0.951546,-0.583205,-1.456875,6.479448,-35.395599,-88.294342,-614.361145
1733469065,6.47452,4.057124,0.524929,-0.511269,-1.380709,6.940732,-38.483856,-88.389542,-614.767639
1733469065,5.311237,4.326921,0.45011,-0.55122,-1.18155,7.399992,-41.825638,-88.380142,-615.176147
1733469065,3.634697,4.569184,0.787393,-0.72579,-0.919211,7.8105,-45.473175,-87.944214,-615.31012
1733469065,1.63913,4.62455,1.255459,-1.018336,-0.625444,8.126917,-49.314697,-87.298813,-616.009888
1733469065,-0.505027,4.410718,1.568801,-1.400768,-0.330579,8.287375,-53.048676,-86.196457,-617.081543
1733469065,-2.434305,3.981108,1.557279,-1.785928,-0.091947,8.3596,-56.415314,-84.649994,-617.012329
1733469065,-3.515736,3.813215,1.054795,-2.098001,0.187087,8.55135,-59.651718,-82.651886,-618.506958
1733469065,-4.66585,4.439598,0.180014,-2.381474,0.576943,8.817592,-63.161011,-80.417847,-619.874512
1733469065,-6.864924,5.077653,-0.548871,-2.737469,1.078419,8.953904,-66.675491,-77.785355,-621.258911
1733469065,-10.304494,4.139724,-0.941669,-3.284057,1.527869,8.699355,-69.790466,-74.796982,-623.100037
1733469065,-14.352341,2.016217,-1.059883,-3.918388,1.518242,7.9582,-72.902374,-71.739853,-625.304138
1733469065,-18.403181,-0.00015,-1.371878,-4.2263,0.918895,6.8428,-74.455185,-69.040222,-626.926819
1733469065,-20.818032,-1.648857,-3.246537,-3.914903,-0.001163,5.71503,-75.201492,-66.588928,-627.415039
1733469065,-21.395185,-2.796128,-6.525247,-3.093425,-0.888019,4.790651,-76.639832,-64.132034,-627.62561
1733469065,-21.839309,-3.544017,-9.356839,-2.180344,-1.523875,3.9689,-77.269211,-62.35611,-627.371338
1733469065,-22.245725,-4.66989,-10.730513,-1.508035,-1.918185,3.289777,-77.4375,-60.726562,-626.15625
1733469065,-22.211458,-5.481674,-10.62412,-1.160137,-2.117908,2.758921,-78.128052,-59.512009,-625.730835
1733469065,-22.550686,-5.929689,-10.608857,-0.970577,-2.118193,2.285384,-78.524475,-58.359543,-625.170593
1733469065,-23.429657,-6.566098,-11.131242,-0.784373,-1.929895,1.815313,-78.979919,-57.661942,-624.495728
1733469065,-24.294413,-7.417985,-12.041937,-0.576352,-1.608018,1.315899,-79.587891,-56.973389,-623.917969
1733469065,-24.810663,-8.669255,-12.773365,-0.391922,-1.157506,0.767761,-79.483246,-56.748734,-623.471985
1733469065,-24.888624,-9.957634,-13.230957,-0.258359,-0.6209,0.196942,-80.092239,-56.527496,-623.261963
1733469065,-24.434324,-10.579827,-13.202526,-0.162541,-0.029299,-0.353302,-79.730255,-56.911789,-623.579163
1733469065,-23.631967,-10.724527,-12.905645,-0.097564,0.563658,-0.857684,-79.965164,-57.376129,-623.513977
1733469065,-22.297799,-10.517129,-12.439374,-0.028636,1.018,-1.291267,-79.637421,-58.203888,-624.142639
1733469065,-20.695928,-10.110414,-11.761067,0.109771,1.212992,-1.682494,-79.276978,-59.290817,-624.350281
1733469065,-19.163639,-9.572617,-11.165509,0.334672,1.219327,-2.039196,-79.018982,-60.15097,-625.38739
1733469065,-17.615189,-8.866627,-10.789769,0.600466,1.11526,-2.328266,-78.409424,-61.314407,-626.015015
1733469065,-16.146646,-8.017433,-10.230723,0.840794,0.942885,-2.557171,-77.839233,-62.668549,-626.146851
1733469065,-15.154548,-7.282563,-9.535806,1.028706,0.827272,-2.777008,-77.267929,-63.883301,-626.010315
1733469065,-14.392594,-6.308422,-8.704569,1.165246,0.870794,-3.010038,-76.118988,-65.404404,-625.93689
1733469065,-14.392594,-6.308422,-8.704569,1.237866,1.042999,-3.262475,-75.196701,-66.892761,-626.446594
1733469065,-13.582456,-5.888689,-7.423671,1.270529,1.235328,-3.534633,-74.385834,-68.476059,-626.581848
1733469066,-12.815862,-5.589563,-6.754043,1.303509,1.368112,-3.833337,-73.108154,-70.270554,-626.552124
1733469066,-11.934197,-4.881628,-6.14397,1.360105,1.38888,-4.119103,-71.552017,-71.981445,-626.756104
1733469066,-10.960057,-4.205415,-5.795464,1.456363,1.356472,-4.383825,-69.907501,-74.010712,-625.919128
1733469066,-9.981726,-3.62527,-5.526566,1.626676,1.319531,-4.627279,-68.503571,-75.458939,-626.396362
1733469066,-8.949526,-2.935591,-4.996549,1.85344,1.267259,-4.830946,-66.806854,-77.190567,-626.127075
1733469066,-8.052897,-2.238279,-4.267814,2.081241,1.19381,-4.996166,-64.89978,-78.980591,-625.655884
1733469066,-7.211036,-1.772757,-3.526509,2.266741,1.137428,-5.155762,-62.731049,-80.496887,-624.485229
1733469066,-6.29705,-1.481712,-2.753781,2.390499,1.097146,-5.330561,-60.620346,-82.100128,-624.035583
1733469066,-5.315277,-1.347038,-1.929278,2.463403,1.028785,-5.516549,-58.140396,-83.60675,-623.523071
1733469066,-4.28592,-1.141286,-1.099687,2.476511,0.886346,-5.706741,-55.598389,-84.899811,-622.201172
1733469066,-3.449596,-0.682647,-0.416741,2.433321,0.634862,-5.87197,-53.109055,-85.966507,-621.159546
1733469066,-2.728941,-0.176423,-0.054318,2.365003,0.359371,-6.033233,-50.243683,-86.961395,-620.467163
1733469066,-2.044648,0.289698,0.107739,2.271492,0.115935,-6.183547,-47.331451,-87.826233,-618.812744
1733469066,-1.298256,0.689231,0.232686,2.180932,-0.097231,-6.303274,-44.237366,-88.151138,-617.947754
1733469066,-0.745943,1.08996,0.348506,2.105973,-0.273447,-6.36816,-44.237366,-88.151138,-617.947754
1733469066,-0.246004,1.405396,0.562787,2.024543,-0.394913,-6.424185,-38.353455,-88.678192,-616.189758
1733469066,0.266056,1.647061,0.818069,1.89372,-0.463168,-6.485938,-38.353455,-88.678192,-616.189758
1733469066,0.709582,1.927632,0.877924,1.701235,-0.471755,-6.568087,-35.647797,-88.388107,-615.669006
1733469066,1.173757,2.294693,0.703596,1.50526,-0.412066,-6.680734,-32.630173,-87.996536,-614.351929
1733469066,2.016666,2.932448,0.598102,1.368549,-0.335267,-6.788795,-29.550186,-87.454758,-613.513794
1733469066,3.197905,3.747973,0.533458,1.270952,-0.234541,-6.814341,-26.360062,-86.572983,-613.198853
1733469066,4.659416,4.586991,0.781707,1.193782,-0.094137,-6.740398,-23.646179,-85.450546,-612.362488
1733469066,6.521805,5.330241,1.360206,1.082744,0.032012,-6.548244,-20.447525,-84.250412,-611.768799
1733469066,8.413973,5.994482,2.026991,0.891233,0.116298,-6.221491,-18.07283,-83.054077,-610.680969
1733469066,10.198102,6.363638,2.396596,0.655908,0.151415,-5.80911,-15.962112,-81.640167,-610.901978
1733469066,11.758822,6.532879,2.462436,0.416378,0.13789,-5.303247,-14.29921,-80.594193,-611.380798
1733469066,12.867936,6.444592,2.020407,0.193578,0.097931,-4.761419,-12.442749,-79.018967,-610.133179
1733469066,13.665505,6.371719,0.98267,0.037107,0.22646,-4.209203,-10.916046,-77.811737,-610.656006
1733469066,14.065486,6.153996,0.217423,-0.060949,0.558043,-3.750675,-10.386703,-76.567123,-610.528931
1733469066,14.497939,6.120028,0.148141,-0.136928,1.008377,-3.381542,-9.723083,-75.525421,-610.124817
1733469066,14.867094,6.484246,0.740706,-0.21303,1.428242,-3.093565,-9.167435,-74.658829,-610.295349
1733469066,15.196297,6.695086,1.857601,-0.27415,1.616436,-2.921354,-8.689911,-73.865173,-609.716919
1733469066,15.847071,6.852205,2.699462,-0.270249,1.498714,-2.860458,-8.383133,-73.030655,-609.373291
1733469066,16.741006,7.189638,3.378817,-0.148548,1.086203,-2.847204,-7.890747,-72.238159,-608.781006
1733469066,17.614291,7.581988,3.931129,0.03189,0.423131,-2.865582,-7.084671,-71.324554,-609.19519
1733469066,18.735975,8.033295,3.697695,0.206398,-0.256208,-2.830534,-6.201401,-70.263535,-609.206848
1733469066,20.074932,8.779986,2.965219,0.325038,-0.709994,-2.67769,-5.251892,-69.182281,-609.284668
1733469066,21.555746,9.357139,2.193987,0.387448,-0.912446,-2.366596,-4.597,-68.119583,-609.572449
1733469066,22.814647,9.763554,1.667262,0.402682,-0.901879,-1.90463,-3.97641,-67.453781,-609.693481
1733469066,23.654263,10.165331,1.486799,0.374677,-0.757802,-1.346921,-3.732224,-66.805817,-609.285767
1733469066,24.29157,10.224887,1.568651,0.323828,-0.572966,-0.745439,-3.345627,-66.622986,-609.707336
1733469066,24.331972,10.195857,1.87032,0.245831,-0.432489,-0.08843,-3.096558,-66.318604,-609.658447
1733469066,23.806295,9.964518,2.134431,0.15249,-0.356571,0.574537,-3.20253,-66.497757,-609.616455
1733469066,22.971766,9.570671,2.239177,0.021835,-0.312505,1.256356,-3.306839,-67.149475,-609.258728
1733469066,21.718851,9.290999,2.294992,-0.124422,-0.26779,1.894373,-3.7612,-67.686813,-609.913818
1733469066,20.233698,8.943241,2.332401,-0.292515,-0.239366,2.45844,-3.951645,-68.53923,-610.291992
1733469066,18.597859,8.694394,2.069937,-0.445469,-0.205692,2.966261,-4.475357,-69.795013,-610.553589
1733469066,16.984467,8.30773,1.816451,-0.582348,-0.140324,3.388805,-5.481995,-70.908829,-610.676392
1733469066,15.589395,7.974936,1.723825,-0.667533,-0.124462,3.740602,-6.428436,-72.169235,-611.229797
1733469066,14.463821,7.637354,1.613243,-0.707095,-0.172217,4.06284,-7.367874,-73.576508,-611.310974
1733469066,13.3782,7.190685,1.434276,-0.728234,-0.247894,4.345187,-8.812561,-74.997543,-611.393555
1733469066,12.335077,6.937499,1.258452,-0.744646,-0.308571,4.596309,-9.994141,-76.423447,-612.071472
1733469066,11.39625,6.821081,1.043423,-0.760355,-0.324102,4.836069,-11.382431,-78.035477,-612.537476
1733469066,10.591499,6.65603,0.921019,-0.790152,-0.289123,5.054587,-13.314499,-79.640274,-612.570129
1733469066,9.862016,6.346729,1.033996,-0.826544,-0.290243,5.257096,-15.140762,-80.750275,-612.891663
1733469066,9.036465,6.071695,0.968455,-0.839798,-0.332166,5.418766,-17.087662,-82.190826,-613.546631
1733469066,8.548796,5.724237,0.990302,-0.799074,-0.397393,5.525349,-19.345444,-83.330963,-614.222107
1733469066,8.39856,5.501127,1.217152,-0.736621,-0.555049,5.663976,-21.57872,-84.69574,-614.471497
1733469066,8.03943,5.430498,1.254262,-0.653454,-0.782974,5.850368,-23.753448,-85.713364,-614.802673
1733469066,7.471106,5.452495,1.125275,-0.544146,-1.023993,6.091314,-26.36322,-86.700409,-615.336243
1733469066,6.607847,5.515792,0.899322,-0.42069,-1.203459,6.383384,-28.702637,-87.552811,-616.063538
1733469066,5.52073,5.622783,0.669628,-0.309561,-1.267173,6.699204,-31.907928,-87.985641,-615.705444
1733469066,4.576217,5.56188,0.736367,-0.237001,-1.22128,7.016284,-35.22522,-88.430374,-616.455811
1733469066,3.688567,5.526416,1.063026,-0.265195,-1.13768,7.370076,-38.323303,-88.777008,-615.946289
1733469066,2.498948,5.627571,1.29242,-0.409607,-1.014915,7.732886,-42.071182,-88.50209,-616.609009
1733469066,1.082927,5.770325,1.486799,-0.626215,-0.836784,8.061519,-45.433807,-88.249802,-616.997314
1733469066,-0.558896,6.009446,1.824831,-0.886535,-0.676247,8.382638,-49.173325,-87.505493,-617.831482
1733469066,-2.526631,5.766285,2.055572,-1.204616,-0.635017,8.618618,-53.641388,-86.14949,-617.820801
1733469066,-4.082114,5.0374,1.328782,-1.527688,-0.67944,8.698867,-57.163727,-84.716827,-618.477783
1733469066,-5.141847,4.906318,-0.327257,-1.699616,-0.637453,8.766626,-60.400925,-82.679321,-619.35083
1733469066,-6.724265,5.154118,-1.773505,-1.66216,-0.375098,8.946353,-63.681473,-80.25531,-620.014771
1733469066,-9.936236,4.319738,-2.018611,-1.604228,0.129936,9.134192,-67.161469,-77.444199,-621.005005
1733469066,-15.011495,1.97372,-1.117643,-1.886068,0.626604,8.928692,-70.8125,-74.488297,-621.891663
1733469066,-19.973178,0.034117,0.186448,-2.494189,0.498475,8.102722,-73.391418,-71.551834,-622.131958
1733469066,-23.153127,-0.829741,-0.745345,-2.790738,-0.575267,6.973015,-74.896362,-68.922668,-623.197754
1733469066,-25.60883,-2.062305,-4.242825,-2.374267,-2.03804,5.828856,-75.818619,-66.452866,-622.691345
1733469066,-28.187086,-3.974524,-7.611616,-1.425693,-3.379743,4.731293,-76.59642,-64.411209,-621.414917
1733469066,-29.218538,-6.120028,-10.562021,-0.460408,-4.061263,3.691783,-76.731659,-62.500732,-619.257202
1733469066,-28.585271,-7.250391,-12.269685,0.236969,-3.894387,2.970853,-77.141693,-61.384811,-617.158081
1733469066,-27.777528,-8.388235,-12.76708,0.623127,-2.982474,2.521438,-77.346954,-60.30162,-616.090088
1733469066,-27.889157,-9.512762,-11.797878,0.697434,-1.695908,2.160495,-78.161133,-59.398361,-615.617676
1733469066,-28.920909,-10.627562,-10.120141,0.506002,-0.519809,1.694775,-79.019379,-58.740906,-615.632751
1733469066,-29.567044,-11.85489,-8.9603,0.249619,0.359321,1.054394,-79.238358,-58.418793,-615.687561
1733469066,-29.377603,-12.765135,-8.374618,0.101754,0.887718,0.290588,-79.753189,-58.446426,-616.386108
1733469066,-27.948264,-13.224971,-8.147019,0.093716,1.116494,-0.517418,-79.648285,-58.945801,-617.056274
1733469066,-25.620202,-13.22557,-8.041674,0.212926,1.141507,-1.269981,-79.446625,-59.458359,-617.582581
1733469066,-22.926576,-12.495488,-7.720403,0.430146,1.030707,-1.880102,-79.225128,-60.772079,-618.067871
1733469066,-20.350116,-11.375301,-7.081001,0.642383,0.873133,-2.335935,-78.773453,-61.767578,-617.726074
1733469066,-18.308161,-10.190919,-6.492776,0.791434,0.744782,-2.63988,-78.088974,-62.976715,-617.795776
1733469066,-16.779164,-9.260772,-6.055834,0.887282,0.73089,-2.826051,-77.63472,-64.40239,-618.113281
1733469066,-15.907225,-8.877251,-5.567267,0.921579,0.790369,-2.986725,-76.807755,-65.62326,-618.622559
1733469066,-15.433323,-8.566154,-5.12838,0.908917,0.888134,-3.188517,-76.192184,-67.196152,-618.615051
1733469066,-14.996082,-8.071452,-4.801571,0.887821,0.997431,-3.445554,-75.285217,-68.657089,-618.729065
1733469066,-14.428058,-7.309647,-4.581903,0.910634,1.103605,-3.728811,-74.259705,-70.349838,-619.284058
1733469066,-13.540407,-6.576573,-4.309114,0.999763,1.204847,-4.023196,-72.944031,-71.881516,-619.36676
1733469066,-12.307394,-5.928791,-3.78209,1.124411,1.27441,-4.296853,-71.577698,-73.882538,-619.471497
1733469066,-11.075278,-5.679046,-3.078046,1.244924,1.259258,-4.548461,-70.11879,-75.509293,-619.872437
1733469066,-9.935638,-5.383213,-2.36173,1.325573,1.148014,-4.815666,-68.488022,-77.172287,-619.132141
1733469066,-9.000852,-4.438401,-1.776198,1.361874,0.974518,-5.067331,-66.646667,-78.962509,-619.078979
1733469066,-7.986757,-3.355623,-1.464653,1.390434,0.816013,-5.282238,-64.300446,-80.492004,-618.580566
1733469067,-6.814197,-2.501342,-1.40809,1.418334,0.717663,-5.45115,-62.604828,-81.955963,-618.140015
1733469067,-5.824045,-1.899799,-1.228525,1.468569,0.650985,-5.566123,-60.062347,-83.222214,-617.532959
1733469067,-5.138106,-1.531092,-0.902913,1.542341,0.594397,-5.682899,-58.081543,-84.376984,-616.872925
1733469067,-4.481646,-1.260398,-0.546925,1.618752,0.530199,-5.821909,-55.384354,-85.589783,-616.133911
1733469067,-3.685125,-0.954987,-0.167145,1.672176,0.471957,-5.969255,-52.623306,-86.496689,-615.795654
1733469067,-2.963124,-0.632518,0.370802,1.687151,0.368499,-6.119854,-49.906616,-87.420898,-615.034546
1733469067,-2.308908,-0.220117,0.897377,1.656733,0.224641,-6.284138,-47.026611,-88.164993,-614.117493
1733469067,-1.524957,0.325163,1.200094,1.579894,0.019839,-6.447232,-44.163315,-88.312332,-613.171631
1733469067,-0.382025,1.064821,1.133206,1.501616,-0.189308,-6.563973,-40.822754,-88.50386,-612.79718
1733469067,0.899621,1.757045,1.059883,1.466926,-0.366614,-6.587848,-37.705765,-88.406067,-611.587646
1733469067,2.051681,2.339285,1.157148,1.449274,-0.560705,-6.509713,-34.90274,-88.184418,-611.235107
1733469067,2.989759,2.531719,1.220295,1.393059,-0.688689,-6.409452,-31.817429,-87.701111,-610.718445
1733469067,3.861997,2.590825,1.221791,1.289951,-0.732548,-6.304426,-29.268707,-87.116409,-609.497681
1733469067,4.745308,2.877381,1.207276,1.104257,-0.606988,-6.171144,-26.254868,-86.362503,-609.654907
1733469067,6.072444,3.483264,1.149815,0.844034,-0.323705,-6.01228,-24.112518,-85.354935,-608.859497
1733469067,7.925556,4.064157,1.224335,0.573791,0.048754,-5.749306,-22.033981,-84.450195,-608.607788
1733469067,9.509619,4.476259,1.761833,0.302596,0.397754,-5.378324,-20.16835,-83.503632,-608.780518
1733469067,10.63669,4.817134,2.264615,0.013576,0.565276,-4.984062,-18.373779,-82.538849,-608.259216
1733469067,11.665149,4.954351,2.081459,-0.377169,0.745128,-4.153709,-16.896744,-81.62851,-608.700684
1733469067,12.414833,4.867262,1.8374,-0.377169,0.745128,-4.153709,-15.838287,-80.751724,-608.876953
1733469067,12.730868,4.48419,1.855806,-0.582803,0.726492,-3.539941,-14.829407,-79.890533,-608.882812
1733469067,12.988245,4.192247,1.826177,-0.599702,0.625609,-3.33637,-13.874893,-79.090195,-608.88855
1733469067,12.869881,4.149451,1.31307,-0.526736,0.685666,-3.304285,-13.038467,-78.383606,-608.370728
1733469067,12.871078,4.339939,0.415394,-0.330311,0.728528,-3.300753,-12.346466,-77.25914,-609.140442
1733469067,13.971962,4.858583,0.522684,-0.080174,0.488131,-3.28495,-11.435211,-76.445175,-609.386719
1733469067,15.26543,5.295076,1.401506,0.174544,0.070912,-3.256311,-10.336273,-75.583557,-608.918701
1733469067,16.584635,5.809081,1.857751,0.410388,-0.437652,-3.118356,-9.647675,-74.542328,-608.707886
1733469067,17.833061,6.512229,2.285565,0.535998,-0.967682,-2.879087,-8.279755,-73.513931,-609.162842
1733469067,18.768745,6.761076,2.527229,0.531874,-1.375054,-2.553856,-7.252731,-72.408905,-609.247437
1733469067,18.967763,6.8338,2.131288,0.442411,-1.431693,-2.227643,-6.301163,-71.602203,-609.493652
1733469067,18.703803,6.862381,1.080683,0.268856,-1.043657,-1.864655,-5.64386,-70.94223,-609.818909
1733469067,19.173964,7.426365,0.255282,0.017071,-0.507255,-1.39687,-5.545563,-70.398972,-609.716248
1733469067,20.281432,8.194604,0.373346,0.017071,-0.507255,-1.39687,-5.157761,-70.04805,-609.687561
1733469067,21.247492,8.598626,0.480486,-0.482063,0.502559,-0.374296,-5.344101,-70.042526,-609.928467
1733469067,22.198589,8.756942,0.417938,-0.615917,0.829513,0.204643,-5.30928,-70.000671,-609.723877
1733469067,22.823476,8.79076,0.4543,-0.59561,0.943807,0.731385,-5.250214,-70.37413,-609.699585
1733469067,22.898743,8.500763,0.760758,-0.506145,0.575049,1.468345,-6.016861,-70.966583,-609.599487
1733469067,23.7629,10.015394,2.235287,-0.399342,-0.102064,2.22097,-6.205948,-71.716125,-609.69928
1733469067,23.126791,9.860669,2.883517,-0.292348,-0.654,2.841988,-7.272812,-72.625336,-610.1875
1733469067,21.014357,9.069685,2.159869,-0.237108,-0.784933,3.31718,-7.761002,-73.597809,-610.263184
1733469067,18.839374,9.024195,1.299154,-0.245684,-0.73148,3.736602,-8.72934,-75.138794,-610.710815
1733469067,17.200543,8.665663,1.170166,-0.306032,-0.625854,4.091523,-9.941681,-76.299484,-610.988892
1733469067,15.869517,8.158691,1.285836,-0.396501,-0.546745,4.446647,-11.17276,-77.549164,-610.50354
1733469067,15.055788,7.768137,1.361104,-0.498298,-0.483399,4.833129,-12.73703,-78.964874,-611.915466
1733469067,14.243255,7.468562,1.232116,-0.580922,-0.410749,5.211635,-14.524445,-80.462677,-612.118286
1733469067,13.141773,7.282264,0.987159,-0.62957,-0.347979,5.580894,-16.48793,-81.752655,-612.3573
1733469067,12.010513,7.068581,0.723947,-0.635482,-0.270201,5.921083,-18.708176,-83.205536,-612.824463
1733469067,10.742633,6.815843,0.351648,-0.594477,-0.165663,6.199133,-21.257446,-84.532501,-612.895142
1733469067,9.469217,6.536021,0.192733,-0.522072,-0.131841,6.432193,-23.771759,-85.690613,-613.092468
1733469067,8.317307,6.291513,0.584036,-0.448622,-0.221652,6.640409,-26.600525,-86.671844,-613.346985
1733469067,7.166444,6.153398,1.216105,-0.38542,-0.422413,6.818365,-29.677155,-87.535248,-613.955322
1733469067,5.820604,5.93358,1.868974,-0.347652,-0.709339,6.952876,-32.552887,-88.325928,-614.079285
1733469067,4.357447,5.614553,2.471564,-0.340004,-1.022101,7.046005,-32.552887,-88.325928,-614.079285
1733469067,3.101539,5.267094,2.687342,-0.36084,-1.247442,7.149868,-38.943466,-88.651535,-614.44751
1733469067,2.125303,5.114464,2.551321,-0.416457,-1.335609,7.313369,-42.013046,-88.707382,-614.552368
1733469067,1.258452,5.179855,2.195633,-0.507489,-1.257243,7.537116,-45.407318,-88.142395,-614.674438
1733469067,0.501735,5.323657,1.711705,-0.634833,-1.059338,7.825144,-48.596542,-87.452148,-615.273621
1733469067,-0.435894,5.462072,1.291672,-0.797952,-0.727372,8.138295,-52.278625,-86.500366,-615.549377
1733469067,-1.985092,5.500828,0.943016,-1.06167,-0.25444,8.333405,-56.254303,-85.084869,-616.224121
1733469067,-4.135235,4.595221,0.915782,-1.453506,0.15033,8.308825,-60.067627,-83.276505,-616.768311
1733469067,-6.330568,2.983475,1.072303,-1.814301,0.400103,8.069287,-63.398041,-81.518265,-617.906921
1733469067,-8.486846,1.619827,0.842909,-2.00872,0.386117,7.703842,-66.057877,-79.346405,-618.710327
1733469067,-9.826103,0.752079,0.443975,-2.008875,0.184185,7.415347,-68.545868,-76.954819,-618.439575
1733469067,-10.781838,0.372149,-0.223858,-1.909113,-0.159544,7.241153,-70.351746,-74.455078,-619.859985
1733469067,-12.582428,0.740407,-0.651821,-1.831646,-0.522634,7.083245,-70.351746,-74.455078,-619.859985
1733469067,-14.991743,0.915184,-0.970101,-1.846282,-1.125414,6.797194,-72.533325,-71.77211,-620.222046
1733469067,-19.129671,-0.171036,-0.732476,-1.843611,-2.090695,6.087557,-74.680679,-69.152649,-620.106567
1733469067,-24.415919,-2.649783,-1.258602,-1.676084,-3.096791,4.98082,-75.998398,-66.788895,-620.007935
1733469067,-28.695405,-5.748777,-3.553893,-1.258149,-3.703391,3.759032,-76.855743,-64.722137,-618.882385
1733469067,-30.644883,-8.430732,-7.002441,-0.642077,-3.667202,2.753445,-77.160995,-63.11908,-617.109558
1733469067,-30.541334,-9.749937,-10.236708,-0.038682,-2.921277,2.039352,-77.349442,-61.859406,-615.878418
1733469067,-29.7089,-10.537779,-11.876587,0.299803,-1.773002,1.533212,-77.54541,-60.913574,-614.257446
1733469067,-28.673558,-11.269657,-11.306917,0.289808,-0.527668,1.116708,-77.810181,-60.387833,-613.872803
1733469067,-28.100446,-11.927314,-9.714922,0.024512,0.641934,0.686221,-78.308594,-59.931259,-613.320923
1733469067,-27.908909,-12.513894,-8.002619,-0.359294,1.507203,0.159095,-78.698471,-59.75174,-614.400208
1733469067,-27.753885,-12.780997,-6.461501,-0.703003,1.954306,-0.497199,-79.105255,-59.926956,-615.507019
1733469067,-26.980707,-12.957719,-5.76853,-0.880366,2.089722,-1.210428,-79.099594,-60.355698,-616.818726
1733469067,-25.030181,-13.061268,-6.210409,-0.862754,1.992378,-1.870345,-79.170959,-61.087631,-617.908081
1733469067,-22.439954,-12.582278,-6.85864,-0.667105,1.726991,-2.384075,-78.593857,-62.032089,-618.984924
1733469067,-19.83641,-11.356147,-7.43669,-0.331903,1.430337,-2.719363,-77.864532,-63.195389,-619.866333
1733469067,-17.886781,-9.999084,-7.983316,0.035414,1.238323,-2.969246,-77.489929,-64.366821,-620.487915
1733469067,-16.804901,-9.244013,-8.296657,0.352176,1.184424,-3.215536,-76.620621,-65.695358,-620.735046
1733469067,-16.306908,-8.820239,-8.280346,0.623969,1.270086,-3.470844,-76.065826,-67.171036,-620.867188
1733469067,-15.821333,-8.096143,-8.085967,0.876765,1.418581,-3.721633,-74.831558,-68.730728,-620.667603
1733469067,-15.279496,-7.216273,-7.520487,1.097639,1.535668,-3.979318,-73.834244,-70.285446,-621.824707
1733469067,-14.444368,-6.538565,-6.575675,1.273945,1.529054,-4.242503,-72.691696,-72.137756,-622.118652
1733469067,-13.366379,-6.260239,-5.468955,1.425424,1.36896,-4.51644,-71.43898,-73.754654,-621.990417
1733469067,-12.443414,-5.770625,-4.447379,1.571559,1.124958,-4.796127,-69.638687,-75.612793,-622.285461
1733469067,-11.525687,-4.981286,-3.760992,1.718346,0.872856,-5.058942,-68.035675,-77.171127,-621.992065
1733469067,-10.618135,-4.282479,-3.253421,1.853741,0.635164,-5.308495,-66.047226,-78.915634,-621.605591
1733469067,-9.671976,-3.684078,-2.889053,1.987734,0.47236,-5.528753,-64.233459,-80.650742,-620.95813
1733469067,-8.630349,-3.022081,-2.649184,2.114293,0.436614,-5.733853,-61.876953,-82.259094,-620.485657
1733469067,-7.528417,-2.559402,-2.302773,2.192591,0.394135,-5.89798,-59.327301,-83.65831,-619.37561
1733469067,-6.392518,-2.004994,-1.562965,2.200106,0.284898,-6.051159,-56.902023,-84.907349,-617.783813
1733469067,-5.374833,-1.624316,-0.815226,2.15823,0.121848,-6.214745,-54.535751,-86.008347,-617.775818
1733469067,-4.472369,-1.06527,-0.185251,2.080618,-0.103507,-6.356347,-51.599609,-86.981369,-616.78894
1733469067,-3.834613,-0.211438,0.419584,1.965217,-0.373886,-6.506695,-48.578568,-87.765167,-615.379211
1733469067,-3.361758,0.362273,0.763002,1.840856,-0.647562,-6.701826,-45.712265,-88.530197,-614.390259
1733469067,-2.704101,0.596455,0.691026,1.761713,-0.886814,-6.854682,-42.243896,-88.649246,-613.098877
1733469067,-1.913566,1.207276,0.406416,1.702621,-1.022405,-6.966393,-38.945847,-88.796524,-612.190552
1733469068,-1.170465,1.832163,0.061202,1.614857,-1.017571,-7.038266,-35.523727,-88.644638,-611.612976
1733469068,-0.298976,2.404377,-0.247052,1.472349,-0.859172,-7.035507,-32.343964,-88.061584,-610.833435
1733469068,0.697461,3.05979,-0.405817,1.284662,-0.649167,-7.041512,-29.28479,-87.622757,-610.587708
1733469068,1.600374,3.478925,-0.370652,1.119903,-0.451995,-7.028642,-26,-86.768555,-609.308716
1733469068,2.681655,4.069694,-0.302268,0.997984,-0.275944,-6.916038,-23.217789,-85.436401,-609.048828
1733469068,3.871424,5.060744,0.105345,0.823363,-0.230777,-6.725796,-20.217499,-84.064819,-608.77356
1733469068,4.982184,5.935076,0.924311,0.569906,-0.267038,-6.484623,-17.631653,-82.749588,-608.797729
1733469068,6.216545,6.394763,1.147122,0.337711,-0.194233,-6.247564,-15.551956,-81.365952,-608.831421
1733469068,7.525425,6.717382,0.539444,0.177477,0.012818,-5.949946,-13.50238,-79.723694,-608.410156
1733469068,9.277232,7.249792,0.14021,0.046734,0.174118,-5.550192,-11.74176,-78.255081,-608.272461
1733469068,11.368717,7.854777,0.350751,-0.093695,0.416781,-5.127648,-10.310577,-76.664307,-608.176025
1733469068,13.591584,8.394221,-0.032621,-0.195911,0.855246,-4.65122,-9.167694,-75.169693,-607.990234
1733469068,15.941193,9.313594,-0.273238,-0.243635,1.222449,-4.136874,-8.119827,-74.062607,-607.865356
1733469068,18.107646,10.254815,0.562488,-0.275745,1.334638,-3.601056,-7.755692,-72.940765,-606.830627
1733469068,20.015676,10.804434,1.75899,-0.293837,1.147266,-3.056143,-7.162766,-71.949905,-607.616516
1733469068,21.539286,11.155633,2.652327,-0.247658,0.811566,-2.523155,-6.961227,-70.897827,-607.067017
1733469068,22.419753,11.353903,2.697667,-0.139507,0.508942,-2.024706,-6.449707,-70.218765,-606.89978
1733469068,22.831257,11.474062,2.436399,-0.039447,0.243441,-1.564972,-6.053406,-69.800095,-606.785278
1733469068,23.254432,11.457302,2.487276,0.049808,-0.001441,-1.143207,-5.824707,-69.458572,-606.36731
1733469068,23.522882,11.662456,2.52304,0.130041,-0.183828,-0.733378,-5.594528,-69.074707,-606.765076
1733469068,23.967305,11.817181,2.611924,0.169395,-0.402316,-0.235171,-4.969147,-69.072891,-607.112671
1733469068,24.604612,11.774085,2.787898,0.177615,-0.527915,0.340668,-5.146561,-69.129211,-606.913086
1733469068,24.697687,11.649287,2.541146,0.126766,-0.575734,1.006502,-5.239792,-69.230392,-607.012329
1733469068,24.532786,11.183615,2.341828,0.050205,-0.574495,1.756464,-5.393051,-69.66098,-606.477844
1733469068,23.663541,10.584915,1.950676,-0.03292,-0.465039,2.494724,-5.70607,-70.449265,-607.216675
1733469068,21.914726,9.880571,1.425448,-0.13607,-0.318703,3.158105,-6.225052,-71.662796,-607.57605
1733469068,19.784485,9.091532,1.33387,-0.251809,-0.185604,3.696171,-7.268433,-72.826218,-607.530579
1733469068,17.432482,8.15899,1.392378,-0.384537,-0.043,4.064301,-8.529892,-74.232437,-607.640991
1733469068,15.119683,7.237223,1.393425,-0.52663,0.069527,4.268848,-9.668106,-75.604507,-608.024292
1733469068,13.255348,6.466739,1.429039,-0.647786,0.108986,4.370117,-10.832092,-77.043503,-608.389404
1733469068,12.079196,5.807884,1.47408,-0.726875,0.017236,4.446177,-12.559174,-78.243134,-608.631897
1733469068,11.464635,5.308693,1.409437,-0.734583,-0.15662,4.546455,-13.979065,-79.681717,-609.201294
1733469068,11.060314,5.015852,1.045518,-0.680735,-0.342117,4.679152,-15.844742,-80.923843,-609.469116
1733469068,10.629806,4.690989,0.556353,-0.570302,-0.4992,4.807895,-17.718689,-82.190842,-609.114746
1733469068,10.15351,4.379743,0.096516,-0.42193,-0.605528,4.960059,-19.371384,-83.214172,-609.766602
1733469068,9.706542,4.194342,-0.267851,-0.26947,-0.603217,5.077653,-21.494507,-84.223221,-610.142334
1733469068,9.016863,3.790321,-0.481235,-0.153981,-0.588071,5.188415,-23.546295,-85.242416,-610.643127
1733469068,8.727164,3.315221,-0.225205,-0.070982,-0.645662,5.357784,-25.820038,-86.170029,-610.6604
1733469068,8.522011,3.112612,0.092177,-0.004178,-0.72966,5.580243,-27.995316,-86.883636,-610.594299
1733469068,8.17575,3.184887,0.265906,0.037491,-0.845807,5.902174,-30.613403,-87.346115,-610.369629
1733469068,7.657704,3.490447,0.455497,0.045115,-0.913161,6.271067,-32.881241,-88.014542,-610.338989
1733469068,6.779781,3.796156,0.423624,0.023766,-0.953187,6.686183,-35.850266,-88.313614,-610.483887
1733469068,4.792743,4.487183,0.259621,-0.021983,-0.945943,7.160653,-38.915619,-88.687378,-610.884338
1733469068,3.217208,4.717774,0.072275,-0.093224,-0.857987,7.623814,-42.189987,-88.36702,-610.767212
1733469068,1.264138,4.720019,-0.16535,-0.187421,-0.694695,8.022206,-45.864517,-87.931625,-610.779358
1733469068,-1.058536,4.378845,-0.441132,-0.310487,-0.435245,8.295965,-49.659943,-87.165817,-611.10199
1733469068,-3.049764,3.903596,-0.783951,-0.470915,-0.099918,8.41116,-53.261902,-86.125626,-611.36554
1733469068,-4.966622,4.064756,-1.059285,-0.633863,0.223013,8.494782,-56.677277,-84.651733,-611.807922
1733469068,-7.241562,4.033033,-1.100285,-0.764623,0.433815,8.519307,-60.617828,-82.769852,-611.979919
1733469068,-9.126996,3.324648,-1.109563,-0.848673,0.491908,8.404218,-63.87262,-80.734589,-612.483032
1733469068,-10.69011,2.520795,-1.151312,-0.884089,0.419131,8.201829,-67.305069,-78.361465,-612.713318
1733469068,-12.421118,1.005415,-1.187524,-0.894052,0.328214,7.876415,-70.391754,-75.836029,-612.887146
1733469068,-13.845519,-0.962619,-1.336413,-0.943196,0.287843,7.387595,-72.528244,-73.139359,-613.775635
1733469068,-15.322142,-2.36173,-1.401506,-1.038149,0.329001,6.841294,-74.636124,-70.805634,-614.098877
1733469068,-17.637036,-3.118597,-0.666187,-1.182777,0.236248,6.196636,-76.147125,-68.469498,-614.360474
1733469068,-19.754408,-3.857807,-0.184802,-1.346237,-0.21504,5.424312,-77.443237,-66.335648,-615.283936
1733469068,-20.824467,-5.054459,-1.081431,-1.394147,-0.809175,4.626842,-78.159912,-64.470093,-614.79895
1733469068,-20.540604,-5.99119,-2.652027,-1.277334,-1.263309,3.950553,-78.861847,-62.729431,-614.586914
1733469068,-19.430443,-6.612186,-4.241478,-1.079022,-1.41927,3.505916,-79.194351,-61.101532,-613.846191
1733469068,-18.220772,-6.830657,-5.531653,-0.889677,-1.135397,3.290095,-79.751266,-59.485077,-613.582886
1733469068,-17.801787,-7.023391,-5.860856,-0.8085,-0.504399,3.217976,-80.368179,-58.058884,-614.010742
1733469068,-18.401235,-8.156147,-5.295525,-0.935455,0.295961,3.121213,-81.187317,-56.623062,-614.531616
1733469068,-19.59669,-9.337985,-3.979911,-1.308126,0.883464,2.853687,-81.569122,-55.348312,-614.843567
1733469068,-20.710144,-9.895834,-3.656844,-1.693502,0.932849,2.391075,-82.109543,-54.362686,-615.676758
1733469068,-21.039646,-10.195408,-5.080795,-1.741739,0.59945,1.840358,-82.272461,-53.685837,-616.1875
1733469068,-21.370494,-10.291925,-6.462698,-1.446164,0.064222,1.302154,-82.385406,-53.304352,-616.25946
1733469068,-22.035035,-10.426748,-7.467814,-0.987019,-0.512923,0.764621,-82.322784,-52.906799,-616.116943
1733469068,-22.035035,-10.426748,-7.467814,-0.551515,-0.899218,0.212785,-81.903015,-52.808517,-615.303955
1733469068,-22.884977,-10.407146,-8.98484,-0.243048,-0.907971,-0.294174,-81.640396,-52.908264,-615.029785
1733469068,-22.807464,-10.005967,-9.295638,-0.080754,-0.540138,-0.705732,-81.501404,-53.338608,-614.79071
1733469068,-22.633136,-9.624691,-9.236082,-0.047623,-0.016855,-1.084017,-81.493881,-54.024902,-614.939331
1733469068,-22.325482,-9.102455,-9.301623,-0.022895,0.511256,-1.488471,-81.383026,-54.75177,-615.287048
1733469068,-21.655554,-8.32823,-9.136124,0.109472,0.90931,-1.911878,-81.185501,-55.939392,-614.879272
1733469068,-20.515315,-7.523479,-8.619725,0.334584,1.106542,-2.312775,-80.949356,-57.275696,-616.157837
1733469068,-19.379566,-6.840234,-7.89503,0.583761,1.129486,-2.681638,-80.599823,-58.383804,-616.72583
1733469068,-18.439692,-6.361543,-7.093421,0.797796,1.073101,-3.043289,-80.009293,-60.086578,-617.110962
1733469068,-17.665767,-6.073341,-6.389975,0.942299,0.977903,-3.419981,-79.502365,-61.58609,-616.921021
1733469068,-16.892739,-5.703288,-5.930587,1.045944,0.886218,-3.81266,-78.465363,-63.477066,-617.221863
1733469068,-16.026187,-5.060444,-5.545719,1.138788,0.819389,-4.195732,-77.312637,-65.494644,-617.473938
1733469068,-15.224579,-4.306121,-5.141698,1.231327,0.784047,-4.558818,-76.124329,-67.448288,-617.138977
1733469068,-14.407557,-3.368941,-4.634576,1.332343,0.801739,-4.885164,-74.983978,-69.350937,-616.628357
1733469068,-13.491925,-2.526182,-3.895067,1.429088,0.828029,-5.161686,-73.459412,-71.673492,-616.880676
1733469068,-12.341361,-2.06874,-3.26614,1.518963,0.893858,-5.423444,-71.738495,-73.833527,-616.266418
1733469068,-10.971429,-1.702128,-2.381183,1.58683,0.990622,-5.647199,-69.802429,-75.901566,-616.690063
1733469068,-9.48463,-1.384297,-1.199794,1.597065,1.013623,-5.821811,-67.89827,-77.895035,-616.498474
1733469068,-8.088511,-1.091906,-0.229394,1.551106,0.908224,-5.977585,-65.720856,-79.624069,-616.401672
1733469068,-6.992565,-0.690278,0.198868,1.488464,0.75743,-6.11186,-63.546204,-81.392792,-615.860779
1733469068,-6.130054,-0.395941,0.371849,1.434708,0.628998,-6.268964,-60.71907,-83.100998,-615.310181
1733469068,-5.245097,0.123451,0.497395,1.394912,0.514734,-6.421413,-57.827332,-84.583633,-615.318481
1733469068,-4.387375,0.729633,0.552612,1.365096,0.391972,-6.557421,-55.279388,-85.421402,-614.420288
1733469068,-3.516933,1.264438,0.686537,1.366673,0.25963,-6.665363,-52.247009,-86.605972,-613.663208
1733469068,-2.595165,1.691803,0.857573,1.380999,0.109267,-6.758229,-49.206253,-87.398621,-613.176941
1733469068,-1.501763,2.147749,1.142034,1.395022,-0.072101,-6.837343,-45.999268,-88.093399,-612.054688
1733469068,-0.260818,2.44837,1.509993,1.388334,-0.265034,-6.873066,-43.07579,-88.317886,-611.890381
1733469068,0.906056,2.573468,1.870919,1.297534,-0.486109,-6.885987,-39.716171,-88.389084,-611.084717
1733469068,1.994071,2.868852,1.73011,1.161264,-0.706212,-6.878716,-36.621124,-88.217392,-610.520752
1733469068,3.227085,3.450344,1.10657,1.070963,-0.830711,-6.837702,-33.370377,-87.79422,-609.769531
1733469068,4.523096,4.196736,0.847847,1.030281,-0.843527,-6.673621,-30.39621,-87.31575,-609.520752
1733469068,5.802647,4.304924,1.068562,0.937556,-0.853404,-6.443801,-27.389999,-86.495926,-609.28125
1733469068,7.46542,4.28592,1.027262,0.739213,-0.758423,-6.168708,-24.743134,-85.622192,-608.52124
1733469069,9.304466,4.674978,0.954688,0.454283,-0.52025,-5.742852,-22.787109,-84.725357,-608.760986
1733469069,10.783933,4.81474,0.490213,0.102804,-0.181926,-5.183448,-20.828506,-83.992172,-608.830566
1733469069,11.711986,4.282778,-0.562338,-0.212928,0.304163,-4.616976,-19.55191,-83.088318,-608.087402
1733469069,12.327146,3.88534,-1.51553,-0.377107,0.90066,-4.110821,-18.51535,-82.344864,-608.867249
1733469069,12.672809,3.699191,-1.440412,-0.42565,1.461341,-3.667513,-17.531525,-81.680557,-608.810425
1733469069,12.624176,3.317017,-0.738462,-0.454946,1.829941,-3.385283,-17.119049,-80.999725,-608.629333
1733469069,12.777854,3.308787,-0.149189,-0.428533,1.975334,-3.26228,-16.413773,-80.414032,-608.85614
1733469069,13.795689,3.592051,0.397138,-0.318619,1.962008,-3.229198,-15.459656,-79.48967,-608.177917
1733469069,15.44709,4.046799,1.411831,-0.151631,1.672363,-3.159063,-14.680527,-78.622375,-607.555481
1733469069,17.068862,4.508731,1.967734,0.011705,1.179048,-2.999296,-14.052521,-78.086685,-607.227966
1733469069,18.34572,4.918289,1.92,0.164404,0.745489,-2.793763,-14.052521,-78.086685,-607.227966
1733469069,19.601928,5.386355,2.193089,0.297859,0.439387,-2.562788,-13.308395,-77.220428,-606.87854
1733469069,20.994305,5.763292,2.841468,0.360977,0.141749,-2.2293,-12.406952,-76.673035,-606.798889
1733469069,21.776312,5.812972,3.14209,0.362817,-0.182787,-1.840258,-11.844666,-75.850296,-606.011536
1733469069,22.282984,5.905897,2.874688,0.364654,-0.364271,-1.489296,-11.769257,-75.347214,-607.064697
1733469069,23.119908,6.130054,2.962076,0.33546,-0.430665,-1.089047,-10.947281,-75.074707,-606.656311
1733469069,23.290046,5.666327,2.988263,0.292321,-0.506013,-0.652077,-10.467117,-74.646225,-606.595032
1733469069,23.400328,6.630891,2.859126,0.211795,-0.446027,-0.09111,-10.118027,-74.650146,-606.546021
1733469069,23.242162,6.879888,2.952051,0.08334,-0.35082,0.563945,-10.595047,-74.781433,-606.777954
1733469069,22.548591,6.047604,2.892196,-0.043274,-0.278974,1.213609,-10.520813,-75.232635,-606.617615
1733469069,21.311836,6.013337,2.843563,-0.220003,-0.189528,1.837404,-11.158569,-75.812881,-606.889771
1733469069,19.636045,5.573552,2.694824,-0.421731,-0.068382,2.361442,-11.804672,-76.422104,-607.402161
1733469069,17.997962,5.35149,2.478298,-0.613843,0.022546,2.798289,-12.502197,-77.363129,-607.608948
1733469069,16.503382,5.039944,2.229451,-0.775211,0.101373,3.131006,-13.634232,-78.290115,-607.177673
1733469069,15.369428,4.726304,2.049586,-0.891319,0.128249,3.401875,-14.531815,-79.315353,-607.921692
1733469069,14.359075,4.587739,1.894262,-0.952028,0.072462,3.65482,-16.05101,-80.66626,-608.618591
1733469069,13.297546,4.338742,1.717989,-0.945124,-0.042489,3.884868,-17.171158,-81.348541,-608.61676
1733469069,12.304102,4.139575,1.491288,-0.898545,-0.18389,4.115455,-18.790207,-82.433319,-608.881042
1733469069,11.265766,3.972878,1.17675,-0.860543,-0.273305,4.321135,-20.451874,-83.151047,-609.215942
1733469069,10.330232,3.715053,0.820613,-0.852973,-0.263952,4.464238,-22.316925,-84.17598,-609.88092
1733469069,9.742755,3.597587,0.593912,-0.851772,-0.212272,4.567699,-23.96524,-85.160522,-610.272156
1733469069,9.425523,3.607014,0.380678,-0.825281,-0.187492,4.674288,-26.068893,-85.894562,-610.807556
1733469069,9.045144,3.645022,0.16909,-0.735521,-0.209571,4.79092,-27.864441,-86.736343,-611.422119
1733469069,8.500763,3.702932,0.118812,-0.574221,-0.291124,4.946539,-30.231155,-87.516144,-611.092712
1733469069,7.500136,3.701286,0.327856,-0.408676,-0.415439,5.122151,-31.914856,-87.870605,-611.677124
1733469069,6.13155,3.521122,0.717512,-0.305491,-0.534738,5.280025,-34.401443,-88.343216,-611.985657
1733469069,4.749049,3.301006,0.988506,-0.281737,-0.656862,5.414399,-36.494095,-88.544434,-612.251953
1733469069,3.443012,2.975993,0.971148,-0.30072,-0.798307,5.532878,-39.242645,-88.72818,-611.718567
1733469069,2.387468,2.453309,0.734122,-0.334834,-0.910089,5.634251,-41.423111,-88.56636,-611.975403
1733469069,1.364545,1.874361,0.464176,-0.379842,-1.016886,5.741341,-43.946243,-88.558914,-612.423584
1733469069,-0.114173,0.933589,0.006883,-0.415402,-1.079148,5.813232,-46.65799,-88.191162,-612.606812
1733469069,-1.659331,-0.728137,-0.552462,-0.44804,-1.027706,5.773424,-49.36824,-87.680588,-613.468811
1733469069,-2.400038,-2.379687,-1.182436,-0.492315,-0.886204,5.677155,-51.369186,-87.115524,-612.996216
1733469069,-2.221221,-2.830096,-2.140566,-0.546771,-0.563348,5.668622,-53.951645,-86.15155,-613.912109
1733469069,-1.266383,-1.641375,-2.839074,-0.568797,-0.076118,5.933672,-55.813736,-85.244843,-613.25354
1733469069,-0.832733,0.408511,-2.706046,-0.560921,0.389437,6.627036,-58.356277,-83.777802,-613.799805
1733469069,-2.79553,1.119888,-1.764676,-0.620821,0.62268,7.475254,-61.469055,-81.807083,-614.480225
1733469069,-6.183624,0.56982,-1.020678,-0.760592,0.600879,8.156548,-64.749786,-79.571167,-614.319458
1733469069,-10.679037,-0.009427,-0.155025,-0.97956,0.4937,8.62566,-68.181885,-76.952576,-616.00592
1733469069,-16.235081,-1.916558,0.990152,-1.382176,0.284144,8.612912,-71.27504,-74.042572,-615.632263
1733469069,-20.373309,-4.287866,1.288529,-1.940826,-0.046136,8.02239,-73.871719,-70.991089,-616.11438
1733469069,-23.36262,-5.394286,0.740706,-2.358334,-0.76655,7.172624,-76.112289,-68.321732,-617.478638
1733469069,-26.526408,-7.482479,-1.942895,-2.325294,-1.793811,6.024143,-77.125412,-66.152649,-616.288208
1733469069,-26.949583,-8.593837,-5.357325,-1.687727,-2.680961,4.840737,-77.685287,-63.948822,-615.928101
1733469069,-26.999412,-9.207202,-7.568371,-0.725309,-3.17413,3.930017,-78.248093,-62.438507,-613.722046
1733469069,-26.975919,-10.657041,-8.041226,0.014015,-3.038693,3.062348,-78.525467,-61.302933,-612.829712
1733469069,-25.781961,-11.079318,-6.984934,0.273942,-2.475794,2.346489,-79.079422,-60.05603,-612.294556
1733469069,-24.371626,-11.131092,-5.809381,0.119308,-1.577817,1.790351,-79.259201,-59.170151,-610.505371
1733469069,-23.896976,-11.096377,-4.96752,-0.327189,-0.635222,1.314225,-79.634628,-58.754013,-611.522766
1733469069,-24.420558,-11.151443,-5.196465,-0.742394,0.082085,0.753353,-79.835159,-58.58699,-611.612976
1733469069,-24.236503,-10.786327,-6.175245,-0.843941,0.507611,0.13046,-80.100037,-58.755722,-612.298523
1733469069,-23.394792,-10.515783,-6.838438,-0.668351,0.613369,-0.476977,-79.941116,-59.095062,-612.02478
1733469069,-22.360796,-10.329783,-7.31264,-0.331738,0.567373,-1.059517,-79.759842,-59.852829,-612.092163
1733469069,-20.877289,-10.226084,-7.527819,0.061376,0.623025,-1.579026,-79.615967,-60.360168,-613.133667
1733469069,-19.155858,-9.846903,-6.769605,0.433678,0.967907,-2.34243,-79.217728,-61.680786,-613.18335
1733469069,-17.701829,-9.287707,-5.506514,0.394309,1.066956,-2.626848,-78.803787,-62.620895,-613.228271
1733469069,-16.432603,-8.701876,-4.712537,0.344924,1.03827,-2.86692,-78.113892,-63.826065,-614.80835
1733469069,-15.473576,-8.1756,-4.271854,0.334352,0.902465,-3.094503,-77.563812,-65.200043,-613.871948
1733469069,-14.931439,-7.539341,-4.279187,0.423259,0.76331,-3.320093,-76.996185,-66.386368,-614.904053
1733469069,-14.689924,-7.117213,-4.639065,0.603329,0.665163,-3.584476,-76.137955,-67.823776,-615.11908
1733469069,-14.56737,-6.692093,-4.826262,0.821709,0.610192,-3.876186,-74.958603,-69.450195,-614.523071
1733469069,-14.509161,-6.00361,-4.697873,1.029361,0.637724,-4.193711,-73.728577,-70.965988,-615.207153
1733469069,-14.275876,-5.460426,-4.433762,1.194661,0.78272,-4.543534,-72.558304,-72.840073,-614.687012
1733469069,-13.413216,-5.430498,-4.05084,1.277634,0.922154,-4.853445,-71.180344,-74.262131,-614.9198
1733469069,-11.911153,-5.241506,-3.239355,1.27245,0.944592,-5.07874,-69.327316,-76.049759,-615.102722
1733469069,-10.57474,-4.279336,-2.454356,1.259446,0.979757,-5.282587,-67.842377,-77.630173,-614.03949
1733469069,-9.466075,-3.378967,-2.290503,1.305201,1.040437,-5.453125,-65.560013,-79.419907,-614.587524
1733469069,-8.445696,-2.801216,-2.071134,1.410024,1.022121,-5.60303,-63.804092,-80.993271,-613.56366
1733469069,-7.369502,-2.388067,-1.47827,1.534599,0.87353,-5.749075,-61.677017,-82.462189,-613.908997
1733469069,-6.370971,-1.8992,-0.792481,1.664504,0.628327,-5.89001,-58.982803,-83.778214,-613.398438
1733469069,-5.66094,-1.20563,-0.071676,1.765687,0.319808,-6.062144,-56.596359,-85.043167,-612.112976
1733469069,-5.091868,-0.703596,0.662745,1.797022,0.002221,-6.267492,-54.050446,-85.976471,-611.942261
1733469069,-4.14571,-0.618452,0.951246,1.760931,-0.288163,-6.447533,-51.239471,-86.807877,-610.416321
1733469069,-3.057096,-0.307056,0.953491,1.695108,-0.518627,-6.627455,-48.297974,-87.314362,-610.22583
1733469069,-2.243816,0.114622,0.731728,1.648148,-0.718368,-6.801441,-45.089798,-87.73674,-609.134399
1733469069,-1.37906,0.712874,0.568922,1.610553,-0.870803,-6.931054,-41.914658,-88.204849,-608.064636
1733469069,-0.379481,1.397615,0.608576,1.526206,-0.987309,-7.049876,-38.516968,-87.978424,-607.537537
1733469069,0.675315,2.079963,0.945261,1.416409,-1.20017,-7.076099,-35.103104,-87.67601,-606.259399
1733469069,1.909525,3.14628,1.511041,1.268489,-1.459937,-6.97875,-31.870193,-87.111938,-605.752075
1733469069,3.217358,3.966145,1.70946,1.06362,-1.645213,-6.821382,-28.441971,-86.30722,-606.076111
1733469069,4.358943,4.249858,1.356016,0.840433,-1.685136,-6.594981,-25.559906,-85.49118,-605.022949
1733469069,5.241506,4.434061,0.755221,0.618388,-1.545202,-6.370412,-22.937302,-84.316986,-605.209473
1733469069,5.678448,4.511723,0.085593,0.38772,-1.200819,-6.195961,-20.434387,-83.184662,-604.606567
1733469069,5.9047,4.841974,-0.452953,0.178426,-0.739235,-6.097462,-17.959976,-82.09671,-605.645691
1733469069,6.127361,5.363161,-0.546925,0.020276,-0.319492,-6.065068,-15.849991,-80.567383,-605.845947
1733469069,7.306655,6.071246,-0.281319,-0.075296,-0.046061,-5.95457,-13.758698,-79.184616,-605.115234
1733469069,9.702053,7.180211,0.087987,-0.151789,0.020229,-5.683434,-12.080566,-77.624756,-605.485779
1733469069,12.617592,8.185626,0.852336,-0.255905,-0.229342,-5.272946,-10.451797,-76.030563,-605.678345
1733469069,15.130606,8.544756,1.661277,-0.338801,-0.594251,-4.834907,-9.100861,-74.483795,-605.627563
1733469069,16.398336,8.436718,1.431733,-0.382416,-0.852361,-4.447528,-7.774872,-72.958481,-606.403748
1733469070,16.47914,8.5268,1.108815,-0.455212,-1.102097,-4.153852,-6.493164,-71.714172,-607.02832
1733469070,16.156971,8.473828,1.079486,-0.567671,-1.119805,-3.956787,-5.315384,-70.457993,-606.598694
1733469070,16.246903,8.608951,0.036661,-0.65258,-0.830739,-3.754148,-4.395706,-69.032211,-607.9953
1733469070,17.310677,9.599701,-0.76405,-0.744381,-0.561186,-3.440626,-3.495316,-67.959213,-608.556763
1733469070,19.021633,10.374375,-0.521337,-0.819939,-0.448246,-3.041073,-2.922104,-66.681244,-609.179321
1733469070,20.402638,10.580127,-0.420182,-0.852448,-0.363715,-2.60199,-2.313766,-65.672699,-609.342468
1733469070,21.195119,10.92564,-0.928501,-0.828658,-0.232987,-2.116001,-1.373413,-65.267471,-609.773987
1733469070,21.550359,11.001506,-1.640926,-0.769881,-0.027278,-1.622582,-1.437012,-64.336746,-609.610413
1733469070,21.487661,10.71899,-2.130839,-0.713042,0.170029,-1.099903,-0.826736,-63.97818,-609.965332
1733469070,21.390995,10.73171,-2.006042,-0.691906,0.368231,-0.550807,-0.64975,-63.672668,-609.115234
1733469070,21.155465,10.383054,-1.925088,-0.684737,0.549645,0.024332,-0.65419,-63.773743,-609.366333
1733469070,20.850354,10.065673,-1.819444,-0.66152,0.628489,0.633279,-0.451126,-64.173798,-609.564087
1733469070,20.556316,9.755175,-1.369184,-0.639972,0.549689,1.234909,-0.933853,-64.610703,-609.512207
1733469070,19.77416,9.2078,-0.774225,-0.634078,0.391643,1.745491,-1.243134,-65.366592,-609.848511
1733469070,18.484434,8.784176,-0.344765,-0.664654,0.207388,2.153927,-1.626251,-66.004181,-608.677856
1733469070,17.081282,8.279898,-0.077961,-0.717201,0.062014,2.462425,-1.958191,-67.352631,-609.975708
1733469070,15.695039,7.710676,-0.189441,-0.762486,0.012254,2.691309,-2.833664,-68.396988,-609.98584
1733469070,14.486865,7.27149,-0.417788,-0.808995,0.028174,2.858272,-3.475815,-69.467453,-610.234497
1733469070,13.581558,6.90383,-0.479589,-0.85891,0.044671,2.990106,-3.799896,-70.554214,-611.003113
1733469070,13.046753,6.603956,-0.401478,-0.883782,0.018056,3.122115,-4.869263,-71.735748,-611.025269
1733469070,12.73416,6.335357,-0.376039,-0.859802,-0.053191,3.249673,-5.847839,-73.029068,-611.437744
1733469070,12.415432,6.026654,-0.441281,-0.785663,-0.154905,3.374312,-6.705048,-74.141388,-611.681091
1733469070,12.162844,5.872228,-0.413,-0.657824,-0.314005,3.523385,-7.59697,-75.162323,-612.032898
1733469070,11.994052,5.983858,-0.349553,-0.472675,-0.479601,3.711202,-8.827881,-76.554077,-612.463379
1733469070,11.977892,6.019771,-0.418985,-0.239356,-0.690129,3.96187,-9.95639,-77.639633,-612.840576
1733469070,12.092813,5.786785,-0.313042,0.014929,-0.941398,4.296969,-11.254013,-78.967361,-613.025513
1733469070,11.91669,5.525967,-0.141707,0.253014,-1.112856,4.647623,-12.996918,-80.680634,-612.681641
1733469070,11.191845,5.455039,-0.071676,0.424059,-1.161448,4.991053,-14.607239,-81.565872,-613.23645
1733469070,10.386346,5.399673,0.136619,0.512682,-1.10963,5.328807,-16.364624,-82.893219,-613.436157
1733469070,9.487623,5.368848,0.33025,0.541491,-0.980153,5.656154,-18.82254,-83.912628,-613.411621
1733469070,8.733748,5.378125,0.559645,0.519457,-0.834084,5.999798,-21.304001,-85.249985,-613.453735
1733469070,8.174253,5.459528,0.819864,0.464303,-0.718541,6.4022,-23.715851,-86.422119,-613.563477
1733469070,7.781754,5.624429,0.977732,0.409719,-0.638196,6.896326,-26.596909,-87.393677,-613.466003
1733469070,7.244705,5.975778,0.992546,0.39582,-0.587563,7.479794,-29.91861,-88.130844,-612.942505
1733469070,6.322638,6.590788,0.964265,0.395776,-0.527728,8.121372,-33.36528,-88.628494,-612.775208
1733469070,4.956147,7.289746,1.148918,0.347826,-0.447331,8.785805,-37.370453,-88.799286,-612.800598
1733469070,3.249081,7.884555,1.543811,0.193466,-0.35331,9.425338,-41.941956,-88.69902,-612.516479
1733469070,1.364845,8.428338,2.044199,-0.100991,-0.262329,9.996066,-46.350906,-87.886505,-612.842285
1733469070,-0.855179,9.136124,2.470218,-0.483765,-0.166253,10.438177,-51.431976,-86.700439,-612.980164
1733469070,-3.43553,9.716119,2.59726,-0.864794,-0.074629,10.69275,-56.144653,-84.878296,-613.908264
1733469070,-6.017377,9.708039,2.519897,-1.197476,0.014039,10.828991,-60.553406,-82.66452,-614.050903
1733469070,-7.977181,9.674969,2.335843,-1.523576,0.096637,10.990563,-64.682678,-79.557678,-614.439575
1733469070,-9.561244,10.271275,2.13473,-1.899409,0.202587,11.215469,-68.205414,-75.900452,-614.648926
1733469070,-11.864915,11.383232,1.909974,-2.366518,0.327609,11.371881,-72.446136,-71.905701,-616.561401
1733469070,-16.733973,11.535862,1.739088,-2.969213,0.476816,10.954442,-75.805695,-67.822754,-617.883972
1733469070,-22.336106,8.358906,1.576283,-3.658202,0.461359,9.91046,-78.110428,-63.519775,-618.642822
1733469070,-25.936536,4.421492,1.552341,-4.337283,-0.04315,8.69108,-79.839828,-59.663605,-619.53717
1733469070,-29.075185,1.83351,1.004368,-4.814436,-0.724754,7.253988,-81.029068,-56.381012,-620.116821
1733469070,-32.712426,-1.649755,-2.391658,-4.88822,-1.006053,5.563416,-81.342178,-53.723633,-620.494141
1733469070,-35.11411,-5.369596,-7.629872,-4.480766,-0.940872,3.921672,-81.3694,-51.833023,-620.633606
1733469070,-35.154213,-7.751078,-12.581679,-3.709697,-0.518658,2.521545,-81.366455,-50.415894,-620.394531
1733469070,-33.333722,-8.84882,-16.51221,-2.852676,0.127616,1.495751,-81.330109,-49.773041,-620.908813
1733469070,-30.637551,-8.257153,-18.13922,-2.1611,0.71966,0.784079,-81.496353,-49.295258,-620.924011
1733469070,-27.726501,-7.046584,-17.659482,-1.649521,1.187273,0.348514,-81.463089,-49.336609,-622.156677
1733469070,-24.914511,-5.600636,-16.717214,-1.222361,1.507188,0.100721,-81.759857,-49.324722,-622.959717
1733469070,-22.716335,-4.739023,-15.695788,-0.824268,1.499219,-0.126913,-81.943069,-49.505371,-623.755005
1733469070,-21.208736,-5.321263,-14.489409,-0.438794,1.198087,-0.403371,-82.1772,-49.452332,-624.83252
1733469070,-20.155587,-6.304232,-13.815441,-0.035053,0.838999,-0.733739,-82.223877,-49.953812,-625.252747
1733469070,-19.4686,-7.019949,-13.730896,0.367279,0.581862,-1.107466,-82.157562,-50.604218,-625.351562
1733469070,-18.827403,-7.454945,-13.524247,0.717827,0.426832,-1.463132,-82.157562,-50.604218,-625.351562
1733469070,-17.987039,-7.22166,-12.804041,0.980348,0.371588,-1.747799,-82.053802,-51.438995,-625.519531
1733469070,-17.039234,-6.402544,-11.878981,1.168918,0.414082,-1.951527,-81.639221,-52.298859,-625.309204
1733469070,-16.164153,-5.595399,-11.162217,1.309932,0.544204,-2.108634,-81.432114,-53.580811,-625.69165
1733469070,-15.425243,-5.079448,-10.641029,1.435302,0.724152,-2.248968,-81.125732,-54.912354,-624.84436
1733469070,-14.900314,-4.535665,-10.104878,1.557431,0.929683,-2.411713,-80.802933,-56.02832,-625.73114
1733469070,-14.554352,-4.250755,-9.520094,1.676043,1.131609,-2.603467,-80.493805,-57.361084,-625.503662
1733469070,-14.161703,-4.11668,-8.839393,1.774737,1.278127,-2.815609,-79.945877,-58.750244,-625.994324
1733469070,-13.690793,-3.88145,-8.019528,1.867083,1.353871,-3.040727,-79.067169,-60.329254,-626.242859
1733469070,-13.306524,-3.514538,-7.185897,1.954195,1.404195,-3.2908,-78.57312,-62.005402,-626.621033
1733469070,-12.81691,-3.225588,-6.433818,2.022773,1.406836,-3.535146,-77.506927,-63.758163,-626.691711
1733469070,-12.145037,-2.982577,-5.755362,2.094243,1.413002,-3.771599,-76.601501,-65.563202,-626.619019
1733469070,-11.450269,-2.85314,-5.376778,2.199185,1.416021,-4.004885,-75.535248,-67.483398,-626.920349
1733469070,-10.731859,-2.695422,-4.982932,2.337172,1.37633,-4.237353,-73.952377,-69.333969,-626.726868
1733469070,-10.089016,-2.395249,-4.47581,2.509018,1.35229,-4.463943,-72.796539,-71.435303,-625.61908
1733469070,-9.471761,-2.089539,-3.913921,2.656882,1.332589,-4.710232,-71.480347,-73.112061,-626.453918
1733469070,-8.841936,-2.172738,-2.96881,2.715679,1.283982,-4.9722,-69.728226,-75.078506,-625.5896
1733469070,-8.087164,-2.12231,-1.801337,2.649233,1.183273,-5.21081,-67.60405,-77.049286,-624.876282
1733469070,-7.591565,-1.652598,-0.512658,2.438894,1.088722,-5.467345,-65.717422,-78.796921,-624.674866
1733469070,-7.091625,-1.450737,0.540192,2.127918,0.962404,-5.72345,-63.526154,-80.572464,-623.898438
1733469070,-6.248417,-1.340753,1.142932,1.828769,0.815785,-5.931578,-60.994293,-82.048615,-623.286133
1733469070,-5.542427,-1.084723,1.307533,1.607085,0.662472,-6.127335,-58.575958,-83.611969,-622.763611
1733469070,-4.92203,-0.700005,1.262492,1.440332,0.466066,-6.358843,-55.968002,-84.981674,-622.304871
1733469070,-4.140772,-0.533308,1.187973,1.315911,0.232233,-6.536566,-52.88327,-85.900146,-621.59314
1733469070,-3.16708,-0.056862,0.926855,1.206538,0.163244,-6.628979,-50.048447,-87.001205,-620.407593
1733469070,-2.379687,0.609923,0.460585,1.030252,0.245701,-6.731918,-46.90625,-87.676514,-620.439636
1733469070,-1.669207,0.82989,0.603937,0.792222,0.288115,-6.817243,-43.933578,-88.089813,-619.863525
1733469070,-0.838419,1.21805,0.811185,0.600208,0.335176,-6.876463,-40.550293,-88.496094,-619.638428
1733469070,0.046687,1.954267,0.102951,0.505517,0.378379,-6.982527,-37.242371,-88.613693,-619.357239
1733469070,0.940323,2.2504,-0.483329,0.497889,0.417138,-7.095281,-34.346786,-88.353745,-618.639404
1733469070,1.876904,2.928707,-1.018733,0.590386,0.439424,-7.155261,-31.154114,-87.720901,-618.577881
1733469070,1.876904,2.928707,-1.018733,0.754823,0.444875,-7.190943,-27.730072,-87.098801,-618.023193
1733469070,4.151396,4.248212,-1.336264,0.94613,0.462927,-7.197262,-24.433105,-86.264801,-617.734863
1733469070,6.400898,5.339219,-0.669628,1.136101,0.434538,-7.050769,-21.425262,-85.077744,-616.681152
1733469070,8.381801,6.263082,0.643891,1.237577,0.247178,-6.743265,-18.744965,-83.762527,-615.445679
1733469070,10.263643,6.657078,1.3831,1.2158,-0.04271,-6.323498,-15.907333,-82.148376,-615.619812
1733469070,11.796381,6.796989,1.419612,1.08771,-0.250809,-5.797602,-13.960632,-80.830811,-615.080627
1733469070,12.588712,6.604256,1.033248,0.888592,-0.252485,-5.252779,-12.480179,-79.386459,-615.268921
1733469070,13.05229,6.430526,0.696563,0.64829,0.009557,-4.805254,-10.807236,-77.855545,-614.727417
1733469070,14.11726,6.830059,0.599299,0.358707,0.514433,-4.452438,-9.548111,-76.581482,-614.405762
1733469070,15.767913,7.66354,0.950648,0.047975,1.108827,-4.097941,-8.653061,-75.349701,-614.01532
1733469071,17.402554,8.345588,1.811962,-0.22009,1.568165,-3.776221,-7.789154,-74.15097,-613.871826
1733469071,19.24983,9.157073,2.587833,-0.403246,1.700162,-3.464848,-7.353683,-73.182144,-613.729065
1733469071,20.775386,9.647436,2.795829,-0.446451,1.501349,-3.106891,-6.576096,-72.131058,-613.077148
1733469071,21.688923,9.886407,2.556409,-0.341857,1.099322,-2.766845,-6.228348,-71.236084,-612.300659
1733469071,22.706609,10.457873,2.540547,-0.137353,0.598084,-2.405716,-5.605621,-70.238998,-612.435913
1733469071,23.454647,10.575488,2.426074,0.044355,0.082436,-1.947096,-4.961288,-69.596207,-612.352051
1733469071,23.483826,10.38455,1.828272,0.15105,-0.205512,-1.416212,-4.141098,-68.860275,-612.606323
1733469071,23.085042,10.278008,1.406145,0.181436,-0.264281,-0.86176,-3.901138,-68.369034,-612.6604
1733469071,22.649896,9.995343,1.066168,0.150104,-0.167428,-0.308205,-3.798569,-68.461807,-612.738464
1733469071,22.224027,9.71567,0.673818,0.105252,-0.036057,0.243706,-3.676941,-68.408585,-612.525146
1733469071,21.482872,9.602245,0.026935,0.09512,0.154168,0.807733,-3.644562,-68.57489,-612.220093
1733469071,20.399945,9.382427,-0.462081,0.097013,0.467429,1.355524,-3.96904,-69.008041,-611.867493
1733469071,19.207932,9.354146,-0.295235,0.073898,0.852118,1.877332,-4.377106,-69.707672,-611.523438
1733469071,18.262521,9.647436,1.011401,0.00818,1.061714,2.374905,-4.795288,-70.702271,-610.513306
1733469071,17.421259,10.143784,2.900575,-0.095656,0.880503,2.842823,-5.743759,-71.755264,-610.744751
1733469071,16.370952,10.257807,4.324527,-0.17376,0.276801,3.316901,-6.653503,-72.919098,-610.939575
1733469071,15.025261,9.466673,4.72765,-0.291459,-0.488308,3.720205,-7.473862,-74.040604,-611.311646
1733469071,13.730747,8.649802,3.651906,-0.474682,-1.092713,4.0711,-8.795761,-75.360611,-612.156128
1733469071,12.398673,8.121731,1.792808,-0.645258,-1.30794,4.380894,-9.949738,-76.73674,-612.117798
1733469071,11.480347,7.603984,0.125546,-0.757315,-1.15979,4.634289,-11.384689,-78.278351,-612.922791
1733469071,11.354501,7.405116,-0.806846,-0.795597,-0.888794,4.923439,-13.056519,-79.69577,-614.14093
1733469071,11.389965,7.532907,-1.258752,-0.728052,-0.670658,5.280123,-14.887329,-80.911301,-614.182739
1733469071,11.335198,7.576152,-1.165078,-0.508761,-0.662962,5.669601,-17.481583,-82.49469,-614.496094
1733469071,10.98355,7.03611,-0.810437,-0.175158,-0.883273,6.081304,-19.572586,-83.980255,-614.417664
1733469071,9.817873,6.545747,-0.39654,0.22547,-1.204228,6.441445,-22.67662,-85.083069,-615.222839
1733469071,8.372822,6.272359,0.36317,0.595489,-1.504534,6.733129,-25.230103,-86.284088,-615.3479
1733469071,6.921936,5.973234,1.344045,0.857675,-1.815921,6.993618,-28.252625,-87.159775,-614.979126
1733469071,5.569212,5.574599,1.654094,1.016958,-2.02006,7.218924,-31.182877,-88.030518,-614.474243
1733469071,4.380042,5.231031,1.731756,1.123998,-2.058899,7.448604,-34.581451,-88.437378,-614.069336
1733469071,3.384204,4.768502,1.84982,1.205768,-1.984311,7.688007,-37.987564,-88.612289,-613.628662
1733469071,2.7457,4.792892,1.964143,1.22534,-1.808835,7.98197,-41.508499,-88.462921,-613.110901
1733469071,2.343774,5.482123,1.904288,1.164404,-1.548618,8.379119,-45.147141,-88.043564,-612.55835
1733469071,1.315913,6.648548,1.84578,1.067651,-1.169219,8.906809,-48.80809,-87.006302,-612.091064
1733469071,-1.137096,7.625981,2.662652,0.920235,-0.758075,9.496155,-53.172379,-85.820038,-611.141785
1733469071,-3.646818,7.716961,3.720889,0.617057,-0.441789,9.944872,-57.308334,-83.77269,-611.079834
1733469071,-6.082769,7.940819,4.219182,0.185904,-0.258878,10.268391,-61.546906,-81.61026,-610.626526
1733469071,-9.553014,7.965509,4.373458,-0.18798,-0.133435,10.495147,-65.815689,-78.643494,-610.961914
1733469071,-12.733113,7.161057,4.339042,-0.529761,-0.036688,10.464564,-69.258392,-75.20433,-611.047546
1733469071,-15.670648,7.241113,3.92694,-0.918469,0.047851,10.369742,-72.157944,-71.537704,-611.58313
1733469071,-19.852421,6.351518,3.284096,-1.421472,0.140142,10.105752,-75.530579,-67.729065,-612.386169
1733469071,-24.435521,3.32375,2.368015,-1.97442,0.047962,9.337395,-77.946747,-64.201324,-612.993042
1733469071,-27.897088,-0.40866,0.85877,-2.309438,-0.429086,8.090831,-79.57811,-61.058838,-613.241394
1733469071,-30.007727,-3.594595,-1.74642,-2.240078,-1.169975,6.651108,-80.784882,-58.195801,-612.499634
1733469071,-31.190013,-5.956026,-4.694281,-1.797908,-1.797849,5.180891,-81.00145,-56.059555,-612.044128
1733469071,-30.946702,-6.82527,-6.841282,-1.157226,-2.121765,3.850803,-80.830734,-54.450668,-611.325378
1733469071,-29.540558,-7.005883,-7.913585,-0.487137,-2.216972,2.845728,-80.697937,-52.832336,-610.048767
1733469071,-27.861325,-7.191434,-8.382848,0.082224,-1.960622,2.171907,-80.581024,-51.853699,-608.885742
1733469071,-26.585664,-6.696881,-7.967903,0.456946,-1.37537,1.78013,-80.560791,-50.945969,-608.001465
1733469071,-25.954642,-6.801927,-7.137414,0.59365,-0.509465,1.539221,-80.884766,-50.293808,-608.156921
1733469071,-25.734675,-7.446715,-5.945102,0.496037,0.514751,1.327304,-81.387497,-49.754333,-608.673523
1733469071,-25.775227,-8.391228,-4.361487,0.155166,1.411361,1.003157,-81.968063,-49.599426,-609.625244
1733469071,-25.578902,-9.546729,-3.177704,-0.288678,1.898876,0.521543,-82.417084,-49.514862,-610.999634
1733469071,-24.914511,-10.405949,-3.167678,-0.655345,2.047944,-0.071635,-82.691101,-49.78064,-612.018799
1733469071,-23.832931,-10.540323,-3.800945,-0.876116,1.954025,-0.688018,-82.777832,-50.23674,-613.468018
1733469071,-22.521058,-10.070461,-4.78571,-0.924094,1.714434,-1.26629,-82.449783,-51.01944,-613.883057
1733469071,-21.016003,-9.114426,-5.72723,-0.804844,1.406347,-1.759872,-82.346619,-52.025787,-614.614075
1733469071,-19.363106,-7.958326,-6.670096,-0.558389,1.146907,-2.119998,-82.100281,-53.219666,-615.128662
1733469071,-17.926735,-7.027281,-7.379378,-0.249484,1.012125,-2.334395,-81.603287,-54.36824,-615.509827
1733469071,-17.070209,-6.113295,-7.575553,0.054977,0.990247,-2.442175,-81.228348,-55.539368,-615.622498
1733469071,-16.795025,-5.298668,-7.476793,0.292386,1.100915,-2.545938,-80.99968,-56.720367,-615.940674
1733469071,-16.822409,-4.893748,-7.215376,0.456839,1.306837,-2.700819,-80.59404,-58.012589,-616.842041
1733469071,-16.807296,-4.746355,-6.791752,0.585164,1.560698,-2.941347,-80.370316,-59.488266,-617.728333
1733469071,-16.514605,-4.775983,-6.206519,0.697935,1.756176,-3.264929,-79.666199,-61.220886,-617.983582
1733469071,-15.828067,-4.776732,-5.61141,0.827406,1.821894,-3.644766,-78.991837,-62.887756,-619.098267
1733469071,-14.87727,-4.457854,-5.131223,0.987751,1.788692,-4.038494,-77.682602,-64.75177,-619.447144
1733469071,-13.72521,-3.648314,-4.554071,1.176907,1.673038,-4.408157,-76.687881,-66.880661,-620.040283
1733469071,-12.419771,-2.885462,-4.068646,1.378162,1.512478,-4.740643,-75.553635,-68.998962,-620.03479
1733469071,-11.036521,-2.114529,-3.586813,1.581991,1.322622,-5.026665,-73.77037,-71.016663,-620.142944
1733469071,-9.677213,-1.420959,-3.12593,1.778617,1.148608,-5.245977,-71.978485,-73.079086,-619.734802
1733469071,-8.706514,-0.895431,-2.538003,1.944004,0.997094,-5.410203,-70.398849,-75.029343,-619.591675
1733469071,-8.01474,-0.859967,-1.988235,2.046253,0.904159,-5.583924,-68.490768,-77.075348,-618.829468
1733469071,-7.129783,-0.997933,-1.443105,2.102724,0.841951,-5.792081,-66.349319,-79.157913,-618.20105
1733469071,-6.139332,-0.676212,-0.768239,2.145105,0.715844,-5.972389,-63.937363,-80.888153,-617.276855
1733469071,-5.227739,-0.402675,-0.149488,2.169438,0.578281,-6.148118,-61.648453,-82.36438,-617.338806
1733469071,-4.472818,-0.223259,0.658705,2.118451,0.435574,-6.347046,-58.722763,-83.894821,-616.136963
1733469071,-3.797653,0.125696,1.346589,1.996376,0.177058,-6.53054,-55.917099,-85.022842,-615.505798
1733469071,-3.104531,0.579397,1.465102,1.87648,-0.070022,-6.706316,-53.046661,-86.22998,-614.602905
1733469071,-2.287809,1.124527,1.396268,1.781038,-0.259033,-6.865497,-49.776398,-86.9729,-613.797729
1733469071,-1.304092,1.584363,1.300052,1.700358,-0.403739,-6.979149,-46.775024,-87.512451,-612.845093
1733469071,-0.109535,2.110489,1.203535,1.611144,-0.486801,-7.027966,-43.089233,-87.925812,-612.16687
1733469071,1.010353,2.499247,1.177498,1.500776,-0.513907,-7.024869,-40.333359,-87.912643,-611.259827
1733469071,2.062904,2.86541,1.292869,1.376268,-0.452785,-6.995269,-37.082565,-87.926926,-610.679688
1733469071,3.198953,3.252673,1.902941,1.20002,-0.403929,-6.925739,-33.846451,-87.577133,-609.441772
1733469071,4.597017,3.750966,2.244714,0.941757,-0.404627,-6.779733,-30.927475,-87.172043,-610.136841
1733469071,5.872677,4.103362,1.841291,0.64396,-0.315052,-6.529168,-28.20517,-86.353424,-609.235291
1733469071,7.143998,4.232051,1.269376,0.392388,-0.070423,-6.261155,-25.873383,-85.728104,-609.528992
1733469071,8.8982,4.681861,1.215656,0.229244,0.224141,-5.902864,-23.795883,-84.854843,-609.351685
1733469071,10.559028,4.834791,1.715146,0.085545,0.428157,-5.466961,-21.880066,-83.830551,-609.155334
1733469071,11.819425,4.738873,2.412308,-0.08027,0.465947,-5.017399,-20.143646,-82.907562,-609.448059
1733469071,12.675502,4.560954,2.54773,-0.248076,0.39168,-4.61678,-18.820557,-82.105042,-609.136414
1733469071,13.236942,4.444386,2.059612,-0.372369,0.36692,-4.28019,-17.511536,-81.143265,-609.254883
1733469071,13.592631,4.491073,1.612944,-0.450918,0.38212,-3.993416,-16.340073,-80.420364,-609.771484
1733469071,13.949966,4.33126,1.186327,-0.504626,0.439902,-3.772166,-15.227936,-79.759216,-609.621521
1733469071,14.393342,4.221277,0.750582,-0.495449,0.500634,-3.600697,-13.849899,-78.618103,-609.828613
1733469071,15.169961,4.470124,0.801609,-0.408191,0.528826,-3.458684,-12.998627,-77.752197,-610.172729
1733469071,16.557102,4.970363,1.532439,-0.275031,0.361058,-3.290481,-12.221146,-76.906204,-610.207397
1733469071,18.04016,5.496638,2.22152,-0.120518,-0.033799,-3.058382,-11.336823,-76.289108,-610.137329
1733469071,19.074754,5.672911,2.31235,0.023521,-0.502441,-2.788703,-10.583298,-75.253922,-610.656982
1733469071,19.976022,5.870732,1.838897,0.1221,-0.852006,-2.501144,-9.771317,-74.673721,-610.40979
1733469071,20.959889,6.059275,1.265934,0.166151,-0.968978,-2.172907,-9.256119,-73.94989,-610.80188
1733469072,22.05344,6.263531,0.965911,0.120993,-0.860281,-1.790606,-8.667542,-73.451157,-611.195923
1733469072,23.039702,6.871808,0.809091,0.01131,-0.596783,-1.311185,-8.213577,-73.42218,-611.072144
1733469072,23.844004,7.112126,0.905308,-0.146053,-0.237486,-0.741501,-7.967697,-73.272186,-610.428467
1733469072,24.290373,7.227945,1.328183,-0.333416,0.041562,-0.09495,-8.188354,-73.5728,-611.476624
1733469072,24.1554,7.327305,1.310975,-0.516839,0.25286,0.620412,-8.713715,-74.007019,-611.173401
1733469072,23.484874,7.215226,1.281197,-0.641089,0.364308,1.347986,-8.713715,-74.007019,-611.173401
1733469072,22.158336,6.849362,1.294665,-0.714933,0.374646,2.012117,-9.352371,-74.730881,-611.693604
1733469072,20.499304,6.528539,1.409736,-0.761187,0.32684,2.570243,-10.262405,-75.607803,-612.043091
1733469072,18.91135,6.263232,1.714847,-0.827543,-0.049805,3.374304,-11.136627,-76.429047,-611.910095
1733469072,17.567305,5.914127,1.967585,-0.872415,-0.328206,3.688436,-12.077835,-77.545212,-612.104309
1733469072,16.174927,5.464167,1.799392,-0.906309,-0.484652,3.953549,-13.407013,-78.621155,-612.539429
1733469072,14.730924,5.134665,1.068412,-0.907572,-0.500133,4.203843,-14.614548,-79.867935,-613.19458
1733469072,13.586197,4.908413,0.405069,-0.871829,-0.457461,4.448721,-15.799606,-80.929688,-613.211243
1733469072,12.605472,4.637569,0.049979,-0.810211,-0.408565,4.676733,-17.625412,-81.722565,-613.324463
1733469072,11.662306,4.301333,-0.042347,-0.731197,-0.395725,4.876577,-19.156769,-83.075043,-614.240356
1733469072,10.786178,3.933823,0.057461,-0.648687,-0.427631,5.039652,-21.348679,-84.146667,-614.698853
1733469072,9.998934,3.463063,0.21069,-0.580398,-0.492,5.18649,-23.332169,-85.13089,-615.387634
1733469072,9.336788,3.050961,0.417788,-0.531008,-0.646441,5.340294,-25.34639,-85.840546,-615.595398
1733469072,8.668057,2.878429,0.755371,-0.478064,-0.874358,5.517332,-27.612122,-86.717758,-616.230469
1733469072,7.860014,2.796876,1.026514,-0.442641,-1.092791,5.689992,-29.824097,-87.418564,-616.203247
1733469072,6.918495,2.663699,1.037886,-0.424525,-1.261223,5.866046,-32.634552,-87.928009,-616.53772
1733469072,6.014384,2.623297,0.890044,-0.39347,-1.361742,6.068866,-35.150223,-88.285721,-616.635376
1733469072,5.185242,2.585139,0.526874,-0.35488,-1.314561,6.313154,-37.795593,-88.424789,-617.250244
1733469072,4.431667,2.6839,0.112527,-0.356716,-1.161104,6.627773,-40.447464,-88.491455,-616.433533
1733469072,3.606416,2.991705,0.108038,-0.427725,-0.969456,6.967132,-43.425461,-88.257904,-617.238159
1733469072,2.784307,3.240552,0.270096,-0.564918,-0.802247,7.318778,-46.8134,-87.733749,-617.432861
1733469072,1.990928,3.589507,0.447267,-0.730775,-0.673969,7.701638,-50.072006,-87.143036,-617.431763
1733469072,0.860267,4.207211,0.629376,-0.919819,-0.574022,8.024927,-53.375412,-86.127563,-618.049805
1733469072,-0.632668,4.500201,0.913538,-1.132618,-0.55782,8.267859,-56.990005,-84.652344,-618.464661
1733469072,-2.293645,4.555418,1.361852,-1.362766,-0.596899,8.484804,-60.51004,-82.88797,-618.671265
1733469072,-3.639486,5.06224,1.469441,-1.636082,-0.613033,8.81803,-63.654709,-80.643845,-618.823425
1733469072,-4.985775,6.619219,1.16014,-1.974855,-0.599999,9.185706,-66.640732,-77.857834,-619.010071
1733469072,-6.911312,7.888446,0.66499,-2.295325,-0.697797,9.466751,-70.086884,-74.799622,-619.883423
1733469072,-9.371803,8.558223,-0.320075,-2.456114,-0.827994,9.617156,-72.895554,-71.383759,-619.485779
1733469072,-12.993183,8.412177,-2.041805,-2.449701,-0.745635,9.459938,-75.749283,-67.392319,-620.716125
1733469072,-17.676989,6.770204,-4.155287,-2.437128,-0.367365,8.869029,-78.282776,-63.277893,-621.136963
1733469072,-22.378004,3.906888,-6.473472,-2.520759,0.295031,7.813715,-80.061371,-59.390305,-622.182251
1733469072,-26.323798,-0.715567,-9.072678,-2.655584,1.01222,6.38894,-81.48616,-55.735306,-622.902649
1733469072,-28.778304,-5.25632,-11.032032,-2.624862,1.211818,4.807643,-82.160217,-52.873383,-623.71936
1733469072,-29.562405,-7.462278,-11.933,-2.146821,0.740211,3.365228,-82.452835,-50.712128,-624.502808
1733469072,-28.659043,-6.741773,-12.49459,-1.25151,-0.26249,2.246039,-82.31163,-49.144958,-624.226196
1733469072,-27.015872,-4.83539,-12.348245,-0.162516,-1.4928,1.501009,-82.162338,-48.434341,-624.294556
1733469072,-25.35684,-3.875165,-11.931354,0.753629,-2.3827,1.03041,-82.075195,-47.487701,-623.062317
1733469072,-24.439412,-3.894319,-11.538256,1.23712,-2.650914,0.697477,-82.04158,-47.007294,-621.085876
1733469072,-24.447044,-4.60794,-11.060164,1.340736,-2.269106,0.414767,-82.108093,-46.510406,-619.859131
1733469072,-24.821437,-5.846341,-11.112537,1.154749,-1.251661,0.061386,-82.378647,-46.336929,-619.169556
1733469072,-25.094525,-6.917746,-11.197831,0.807332,-0.018608,-0.346412,-82.258316,-46.669495,-618.957092
1733469072,-24.726866,-7.604284,-10.621876,0.476457,1.035444,-0.763617,-82.593552,-47.109207,-619.143921
1733469072,-23.407511,-8.017882,-9.882217,0.349972,1.674505,-1.118742,-82.399582,-47.705994,-619.731934
